time,seconds_elapsed,z,y,x
1752154081451419100,0.049419189453125,-0.9658259749412537,-0.25081300735473633,0.040720999240875244
1752154081461272300,0.059272216796875,-1.6973240375518799,0.11690200120210648,0.11112699657678604
1752154081471125800,0.069125732421875,-2.062436103820801,-0.8578870296478271,-0.17584699392318726
1752154081480979000,0.07897900390625,-3.9304308891296387,-1.5227810144424438,0.4565750062465668
1752154081490832400,0.088832275390625,-4.63454008102417,-1.7887589931488037,0.45812100172042847
1752154081500685600,0.098685546875,-3.7910609245300293,-1.9976290464401245,0.24074000120162964
1752154081510539000,0.1085390625,-2.9808270931243896,-2.020021915435791,0.2687149941921234
1752154081520392400,0.118392333984375,-2.917541980743408,-1.3781520128250122,0.9024559855461121
1752154081530245600,0.12824560546875,-2.5149569511413574,-0.1072079986333847,1.5863670110702515
1752154081540099000,0.13809912109375,-1.6036649942398071,0.8112589716911316,1.689555048942566
1752154081549952300,0.1479521484375,-0.639523983001709,0.8468689918518066,1.311295986175537
1752154081559805700,0.1578056640625,1.273224949836731,0.16302600502967834,0.7383350133895874
1752154081569659000,0.167658935546875,3.8782460689544678,-0.8966209888458252,1.0660200119018555
1752154081579512000,0.177511962890625,3.835279941558838,-1.5949829816818237,1.143565058708191
1752154081589365500,0.187365478515625,2.17592191696167,-1.5994600057601929,1.5805000066757202
1752154081599219000,0.197218994140625,0.9673380255699158,-0.8480920195579529,2.1685550212860107
1752154081609072000,0.207072021484375,-0.5859619975090027,-0.2669300138950348,2.686750888824463
1752154081618925300,0.21692529296875,-2.6066861152648926,0.40713098645210266,3.2527430057525635
1752154081628778800,0.22677880859375,-3.7037830352783203,0.4169290065765381,4.820059776306152
1752154081638632000,0.2366318359375,-2.3180160522460938,-0.030009999871253967,6.372045993804932
1752154081648485400,0.2464853515625,-2.7312920093536377,-1.2852009534835815,4.969789981842041
1752154081658338800,0.2563388671875,-2.1924641132354736,-2.5422139167785645,2.3344171047210693
1752154081668192000,0.26619189453125,-0.8036230206489563,-2.4184629917144775,1.546336054801941
1752154081678045200,0.276045166015625,1.1826980113983154,-2.1324310302734375,0.8956829905509949
1752154081687898600,0.285898681640625,4.647775173187256,-2.060800075531006,1.6725879907608032
1752154081697751800,0.295751708984375,4.775962829589844,-2.1891589164733887,1.3702629804611206
1752154081707605200,0.305605224609375,3.324038028717041,-4.889645099639893,0.03884100168943405
1752154081717458700,0.315458740234375,-4.275634765625,-7.328589916229248,-0.37627100944519043
1752154081727312000,0.325311767578125,0.3375740051269531,-2.2843151092529297,0.4443719983100891
1752154081737165000,0.3351650390625,2.619239091873169,1.8485599756240845,-0.15995800495147705
1752154081747018800,0.345018798828125,2.1597940921783447,3.986215114593506,0.6759170293807983
1752154081756872000,0.354871826171875,-0.014557999558746815,4.402111053466797,1.0059410333633423
1752154081766725000,0.36472509765625,-0.05456100031733513,2.1563351154327393,0.1809370070695877
1752154081776578600,0.37457861328125,-1.32784903049469,-0.36016300320625305,-0.2320609986782074
1752154081786431700,0.384431640625,-1.4474869966506958,-1.3551759719848633,0.32561901211738586
1752154081796285200,0.39428515625,-0.9072700142860413,-1.4674060344696045,1.2023810148239136
1752154081806138400,0.404138427734375,0.011838999576866627,-1.2933770418167114,1.6978180408477783
1752154081815991800,0.41399169921875,2.9831860065460205,-2.0687220096588135,3.0087039470672607
1752154081825845000,0.423844970703125,3.1382880210876465,-1.662032961845398,4.729888916015625
1752154081835698400,0.433698486328125,0.852029025554657,-3.0332300662994385,4.581425189971924
1752154081845551600,0.443551513671875,1.810986042022705,-2.734924077987671,2.967566967010498
1752154081855405000,0.453405029296875,1.4198880195617676,-2.2737998962402344,1.4654779434204102
1752154081865258500,0.463258544921875,1.5396169424057007,-3.254826068878174,1.4615360498428345
1752154081875111700,0.473111572265625,2.207603931427002,-1.6420279741287231,1.1415820121765137
1752154081884965000,0.482965087890625,3.392751932144165,0.32095101475715637,-0.24248099327087402
1752154081894818600,0.492818603515625,3.5868120193481445,0.8257229924201965,-1.5066100358963013
1752154081904671700,0.502671630859375,2.577423095703125,0.31768399477005005,-1.7811000347137451
1752154081914525200,0.512525146484375,1.4328900575637817,-0.5101079940795898,-0.632552981376648
1752154081924378400,0.52237841796875,0.2523050010204315,-0.9638239741325378,0.497078001499176
1752154081934231600,0.5322314453125,-0.7315459847450256,-1.1048109531402588,0.6425949931144714
1752154081944085000,0.5420849609375,-0.8693720102310181,-0.9302470088005066,0.8170809745788574
1752154081953938400,0.5519384765625,-0.9054949879646301,-0.7013900279998779,0.7840570211410522
1752154081963791600,0.56179150390625,-1.1828069686889648,-0.3830049932003021,0.48008298873901367
1752154081973644800,0.571644775390625,-0.7891349792480469,-0.07924800366163254,0.05002100020647049
1752154081983498500,0.58149853515625,-0.6129699945449829,-0.18761199712753296,-0.08006499707698822
1752154081993351700,0.5913515625,0.08304599672555923,-0.45707300305366516,0.026336999610066414
1752154082003204900,0.601204833984375,0.6478559970855713,-0.6645569801330566,0.26054298877716064
1752154082013058300,0.611058349609375,0.759037971496582,-0.9725049734115601,0.7016649842262268
1752154082022911700,0.620911865234375,0.309116005897522,-0.9678599834442139,1.0465669631958008
1752154082032765000,0.630764892578125,0.27483800053596497,-0.9850640296936035,1.4677109718322754
1752154082042618400,0.640618408203125,0.45640799403190613,-0.8887919783592224,1.5523220300674438
1752154082052471600,0.650471435546875,0.7502869963645935,-0.8763840198516846,1.1052589416503906
1752154082062325000,0.660324951171875,0.36961498856544495,-0.8354139924049377,1.6871689558029175
1752154082072178200,0.67017822265625,-0.3533889949321747,-1.0220320224761963,2.2376770973205566
1752154082082031600,0.680031494140625,-0.6411619782447815,-0.9086419939994812,1.9133540391921997
1752154082091884800,0.689884765625,-0.45373401045799255,-1.029255986213684,1.3290170431137085
1752154082101738200,0.69973828125,-0.07974600046873093,-0.8014839887619019,0.9933890104293823
1752154082111591700,0.709591796875,0.41908299922943115,-0.833076000213623,0.918412983417511
1752154082121444900,0.71944482421875,1.0762070417404175,-1.0403950214385986,0.9005119800567627
1752154082131298000,0.729298095703125,1.3916720151901245,-1.1307649612426758,0.7064170241355896
1752154082141151500,0.7391513671875,1.5606880187988281,-1.0560799837112427,0.5712130069732666
1752154082151005000,0.7490048828125,1.2726680040359497,-0.9330490231513977,0.41583898663520813
1752154082160858000,0.758858154296875,1.0240119695663452,-0.884680986404419,0.4199880063533783
1752154082170711600,0.768711669921875,1.3982080221176147,-1.7098220586776733,1.2082120180130005
1752154082180564700,0.778564697265625,1.4821369647979736,-1.5437109470367432,2.5987210273742676
1752154082190418200,0.788418212890625,1.2016689777374268,-0.9728000164031982,1.569064974784851
1752154082200271600,0.798271728515625,0.5647749900817871,-0.7750179767608643,1.2643699645996094
1752154082210124800,0.808124755859375,-0.2711229920387268,-0.24684900045394897,0.4180169999599457
1752154082219978000,0.81797802734375,-0.5289040207862854,0.1625179946422577,-0.29340800642967224
1752154082229831700,0.827831787109375,-0.16661199927330017,0.13122299313545227,-0.05659899860620499
1752154082239685000,0.83768505859375,0.18325300514698029,0.20445500314235687,0.20121900737285614
1752154082249538000,0.8475380859375,0.49981701374053955,-0.194022998213768,0.4487920105457306
1752154082259391500,0.8573916015625,0.9231200218200684,-0.30167001485824585,0.7537220120429993
1752154082269245000,0.867244873046875,0.9157900214195251,-0.49994799494743347,0.9435030221939087
1752154082279098000,0.87709814453125,0.5436949729919434,-0.6196879744529724,0.9396929740905762
1752154082288951600,0.88695166015625,-0.0819849967956543,-0.570842981338501,0.9929919838905334
1752154082298805000,0.896804931640625,-0.727832019329071,-0.20257000625133514,0.3056820034980774
1752154082308658200,0.906658203125,-0.947393000125885,-0.08136700093746185,0.171984001994133
1752154082318511600,0.91651171875,-0.7695329785346985,-0.33065399527549744,0.20079100131988525
1752154082328364800,0.92636474609375,-0.17327100038528442,-0.7405200004577637,0.35870999097824097
1752154082338218200,0.93621826171875,0.25795701146125793,-3.0301620960235596,1.938763976097107
1752154082348071700,0.94607177734375,-0.23683099448680878,-1.0413169860839844,1.004384994506836
1752154082357924900,0.9559248046875,0.24347199499607086,0.4636940062046051,0.5022919774055481
1752154082367778000,0.965778076171875,0.5751789808273315,-0.16064099967479706,-1.3482739925384521
1752154082377631500,0.975631591796875,0.42083999514579773,-0.4735719859600067,-0.9856410026550293
1752154082387485000,0.98548486328125,0.3552530109882355,-0.5741879940032959,0.49518799781799316
1752154082397338000,0.995338134765625,0.2315479964017868,-0.8498049974441528,0.4818730056285858
1752154082426895400,1.024895263671875,0.2524949908256531,-0.8795340061187744,0.5274980068206787
1752154082436748000,1.034748046875,0.25745299458503723,-0.8843650221824646,0.5414649844169617
1752154082446602000,1.04460205078125,0.25853100419044495,-0.8789039850234985,0.5544919967651367
1752154082456455400,1.054455322265625,0.25564199686050415,-0.8646159768104553,0.56392902135849
1752154082466308600,1.06430859375,0.32395899295806885,-0.9203739762306213,0.6540799736976624
1752154082476162000,1.074162109375,0.2969929873943329,-0.8241860270500183,0.6447569727897644
1752154082486015500,1.084015380859375,0.3245779871940613,-0.5824840068817139,0.3484260141849518
1752154082495868700,1.09386865234375,0.4641070067882538,-0.4215419888496399,-0.04626400023698807
1752154082505722000,1.10372216796875,0.634302020072937,-0.3417760133743286,-0.2919729948043823
1752154082515575600,1.113575439453125,0.7834600210189819,-0.3549819886684418,-0.35410401225090027
1752154082525428700,1.1234287109375,0.7237690091133118,-0.5636699795722961,-0.21788300573825836
1752154082535282000,1.133281982421875,0.7429689764976501,-0.5862789750099182,-0.17523500323295593
1752154082559916000,1.157916015625,0.30898600816726685,-1.0765559673309326,0.4156379997730255
1752154082579625000,1.177625,0.357217013835907,-0.9166880249977112,-0.05057699978351593
1752154082589478100,1.18747802734375,0.027408000081777573,-0.7579169869422913,-0.4797450006008148
1752154082599331600,1.19733154296875,-0.24029600620269775,-0.6302719712257385,-0.5008010268211365
1752154082609185000,1.20718505859375,-0.1751590073108673,-0.6066529750823975,-0.22229699790477753
1752154082619038500,1.21703857421875,-0.39177000522613525,-0.741346001625061,-0.19380499422550201
1752154082628891600,1.2268916015625,-0.4547620117664337,-0.8993909955024719,-0.24072200059890747
1752154082638745000,1.2367451171875,-0.36232200264930725,-1.147596001625061,-0.10604599863290787
1752154082648598300,1.246598388671875,-0.3783609867095947,-1.5811419486999512,0.13057099282741547
1752154082658451700,1.25645166015625,-0.9769799709320068,-1.7755939960479736,0.3520979881286621
1752154082668305000,1.266304931640625,-0.9889119863510132,-1.8353110551834106,0.46331000328063965
1752154082678158300,1.276158447265625,-0.7254459857940674,-1.6386200189590454,0.340813010931015
1752154082688011800,1.28601171875,-0.471002995967865,-1.5063689947128296,0.22291299700737
1752154082697865200,1.295865234375,-0.028754999861121178,-1.5172109603881836,0.009405000135302544
1752154082707718100,1.30571826171875,0.1859149932861328,-1.5746090412139893,-0.08530200272798538
1752154082717571600,1.315571533203125,0.27491000294685364,-1.7719019651412964,-0.13743199408054352
1752154082727424800,1.3254248046875,0.2715960144996643,-2.133681058883667,-0.07430099695920944
1752154082737278500,1.335278564453125,0.5998550057411194,-2.5632760524749756,0.20240400731563568
1752154082747131600,1.345131591796875,0.8043389916419983,-2.941664934158325,0.5097749829292297
1752154082756985000,1.354985107421875,0.27170300483703613,-3.476757049560547,0.6766340136528015
1752154082766838500,1.364838623046875,0.06799600273370743,-3.6624081134796143,0.6500710248947144
1752154082776691700,1.374691650390625,0.22055700421333313,-3.508202075958252,0.41723498702049255
1752154082786545000,1.384544921875,0.4589090049266815,-3.242032051086426,0.21310000121593475
1752154082796398300,1.3943984375,0.24348999559879303,-2.3963708877563477,0.4018639922142029
1752154082806251800,1.404251708984375,0.5793089866638184,-1.1768590211868286,0.7288789749145508
1752154082816105200,1.414105224609375,0.2623940110206604,-0.07478900253772736,1.5050040483474731
1752154082825958400,1.42395849609375,0.0944959968328476,0.17220699787139893,2.042454957962036
1752154082835811600,1.4338115234375,0.7591400146484375,-0.2348950058221817,1.3678539991378784
1752154082845665000,1.4436650390625,-1.1413919925689697,-0.7371129989624023,0.04312000051140785
1752154082855518200,1.453518310546875,-1.8781429529190063,-0.5289469957351685,-0.11383599787950516
1752154082865371600,1.46337158203125,-2.113642930984497,-0.08647199720144272,0.1084040030837059
1752154082875225000,1.47322509765625,-1.1407439708709717,0.2315090000629425,-0.31716498732566833
1752154082885078300,1.483078369140625,-0.0439319983124733,0.4529910087585449,-0.629734992980957
1752154082894931700,1.492931640625,0.6823959946632385,0.3629879951477051,-0.8576809763908386
1752154082904785200,1.50278515625,-3.0446979999542236,0.6428850293159485,0.07447499781847
1752154082914638300,1.512638427734375,-8.393379211425781,0.4578459858894348,0.7336819767951965
1752154082924491500,1.522491455078125,-9.53563404083252,0.16587500274181366,0.5907250046730042
1752154082934345200,1.53234521484375,-7.7598347663879395,-0.35567599534988403,-0.6608219742774963
1752154082944198700,1.54219873046875,0.4213930070400238,-0.2637909948825836,-0.5583469867706299
1752154082954051800,1.5520517578125,5.927661895751953,1.8223979473114014,-0.7657390236854553
1752154082983612000,1.58161181640625,0.6862990260124207,2.5886359214782715,-0.03604799881577492
1752154083003318500,1.601318603515625,-1.9177030324935913,0.9716699719429016,3.056114912033081
1752154083032878600,1.630878662109375,10.562385559082031,-1.0844709873199463,5.137388229370117
1752154083082145300,1.680145263671875,3.8662021160125732,3.2813830375671387,0.2183389961719513
1752154083091998700,1.689998779296875,2.833064079284668,3.6819660663604736,-0.13414399325847626
1752154083101852000,1.699851806640625,1.6851140260696411,2.6520791053771973,0.673675000667572
1752154083111705300,1.709705322265625,1.7087570428848267,1.9018199443817139,0.5765929818153381
1752154083121558500,1.71955859375,1.8977580070495605,1.9341399669647217,-0.14537400007247925
1752154083131412200,1.729412109375,1.8742070198059082,1.816864013671875,0.40391701459884644
1752154083141265400,1.739265380859375,1.4053540229797363,1.2068990468978882,0.8633570075035095
1752154083151118800,1.749118896484375,1.0329829454421997,1.4139189720153809,0.9875320196151733
1752154083160972300,1.75897216796875,1.3043869733810425,2.2836320400238037,0.05902000144124031
1752154083170825500,1.768825439453125,1.131857991218567,3.493536949157715,-1.4530550241470337
1752154083180678700,1.7786787109375,0.5187600255012512,4.064925193786621,-2.237821102142334
1752154083190532000,1.788531982421875,-0.18118800222873688,4.023468017578125,-2.419347047805786
1752154083200385500,1.798385498046875,-1.8046269416809082,3.63529109954834,-1.4734430313110352
1752154083210238700,1.80823876953125,-2.3547658920288086,3.1015920639038086,-0.7604920268058777
1752154083229945300,1.8279453125,-1.0142420530319214,3.8287739753723145,-2.5197250843048096
1752154083239799000,1.837799072265625,-0.11042699962854385,3.8081469535827637,-3.0021440982818604
1752154083249652200,1.84765234375,-0.1242000013589859,3.413400888442993,-2.922837972640991
1752154083259505400,1.85750537109375,1.4771380424499512,2.0610389709472656,-2.5938310623168945
1752154083269358800,1.86735888671875,1.7575939893722534,-2.734081983566284,1.3491840362548828
1752154083279212300,1.87721240234375,0.8882420063018799,-4.7259697914123535,3.3894619941711426
1752154083289065500,1.8870654296875,0.8356819748878479,-0.9347599744796753,-0.7717139720916748
1752154083298919000,1.8969189453125,2.4559969902038574,-2.396496057510376,-3.3422019481658936
1752154083308772000,1.906772216796875,0.15626999735832214,-1.7007089853286743,-1.6296379566192627
1752154083318625500,1.91662548828125,0.037480998784303665,-2.1776819229125977,-2.1237010955810547
1752154083328479000,1.92647900390625,0.19970199465751648,-1.197666049003601,-1.6440600156784058
1752154083338332400,1.93633251953125,-0.08744899928569794,-0.8861430287361145,-1.2904499769210815
1752154083348185600,1.946185546875,0.004767000209540129,-1.0399249792099,-0.16878800094127655
1752154083358038800,1.956038818359375,-0.3183650076389313,-0.4929470121860504,0.41135698556900024
1752154083367892200,1.965892333984375,-0.23045100271701813,-0.6405529975891113,1.5248899459838867
1752154083377745700,1.97574560546875,0.06321100145578384,-1.3564879894256592,2.2791430950164795
1752154083387599000,1.98559912109375,0.12279099971055984,-0.4714899957180023,1.4400429725646973
1752154083397452500,1.99545263671875,-0.9874789714813232,-0.45153701305389404,0.188632994890213
1752154083407306000,2.005305908203125,-0.5871430039405823,-1.1644699573516846,0.9076970219612122
1752154083417159000,2.015158935546875,-0.5294229984283447,-1.350904941558838,0.6839939951896667
1752154083427012400,2.025012451171875,-0.19527100026607513,-0.7997289896011353,-0.18881699442863464
1752154083436865800,2.03486572265625,0.40280500054359436,-0.4395810067653656,-1.0466740131378174
1752154083446719200,2.04471923828125,0.5527889728546143,-0.4823800027370453,-0.8576880097389221
1752154083456572400,2.054572509765625,0.2876180112361908,-0.07012800127267838,-1.4665210247039795
1752154083466426000,2.064426025390625,0.23482100665569305,-0.03861900046467781,-1.8603310585021973
1752154083476279300,2.074279296875,0.0670590028166771,-0.5806289911270142,-2.145009994506836
1752154083486132500,2.084132568359375,-0.6431580185890198,-0.4665060043334961,-3.315361976623535
1752154083495986000,2.09398583984375,-1.3100719451904297,-0.1365330070257187,-3.8299310207366943
1752154083505839400,2.10383935546875,-2.929605007171631,-0.05845300108194351,-3.6826400756835938
1752154083515692500,2.113692626953125,-2.6047608852386475,-0.7181950211524963,-0.7266489863395691
1752154083525546000,2.1235458984375,-1.7516789436340332,-0.06863000243902206,-0.5223609805107117
1752154083535399700,2.133399658203125,-1.972113013267517,0.09651099890470505,-1.1110199689865112
1752154083545252900,2.1432529296875,-0.7877089977264404,-0.7230290174484253,0.5463050007820129
1752154083555106000,2.15310595703125,-4.0255818367004395,0.797012984752655,0.7984859943389893
1752154083564959500,2.16295947265625,-0.16572199761867523,-1.0934849977493286,4.632312774658203
1752154083574813000,2.17281298828125,0.37071099877357483,1.3516939878463745,1.1263220310211182
1752154083584666400,2.182666259765625,-4.008893013000488,3.242867946624756,5.068394184112549
1752154083604373000,2.202373046875,3.4263041019439697,2.6961560249328613,6.212123870849609
1752154083614226200,2.21222607421875,1.871891975402832,4.793257236480713,2.367332935333252
1752154083643786200,2.2417861328125,0.15179100632667542,3.692548990249634,0.9068809747695923
1752154083673346600,2.2713466796875,1.4880759716033936,1.8563790321350098,0.6715620160102844
1752154083683199500,2.281199462890625,1.1613399982452393,1.893955945968628,-0.5391719937324524
1752154083693053000,2.291052978515625,1.4247369766235352,1.7687139511108398,-1.072329044342041
1752154083712759800,2.310759765625,0.456743985414505,-0.40730199217796326,1.3416409492492676
1752154083722613200,2.32061328125,0.37490999698638916,-0.29495298862457275,1.001304030418396
1752154083732466700,2.330466796875,-0.6722649931907654,-0.8358719944953918,0.8280460238456726
1752154083742319900,2.34031982421875,0.9847819805145264,1.122910976409912,2.300792932510376
1752154083752173300,2.35017333984375,5.196025848388672,1.459570050239563,-2.5551960468292236
1752154083771879700,2.369879638671875,1.0944199562072754,-0.7903730273246765,1.6238429546356201
1752154083781733400,2.3797333984375,0.3441529870033264,0.8471699953079224,0.7703670263290405
1752154083791586800,2.3895869140625,1.8930740356445312,1.7262599468231201,-0.7603970170021057
1752154083801440000,2.39943994140625,1.1432180404663086,1.452085018157959,-1.4477620124816895
1752154083811293200,2.409293212890625,0.4196760058403015,2.0513620376586914,-0.2097260057926178
1752154083821147000,2.41914697265625,1.0276789665222168,1.0247989892959595,-0.4413580000400543
1752154083831000000,2.429,-1.6053880453109741,-0.378154993057251,0.19717399775981903
1752154083840853500,2.438853515625,-2.035304069519043,1.2820119857788086,2.994663953781128
1752154083850707000,2.44870703125,0.0267730001360178,-1.583907961845398,-1.45871102809906
1752154083860560400,2.458560302734375,-3.2137091159820557,-0.4646579921245575,2.3346149921417236
1752154083870413600,2.46841357421875,-0.4631809890270233,0.5622680187225342,1.906304955482483
1752154083880267000,2.47826708984375,-1.8171080350875854,-1.217607021331787,-1.960047960281372
1752154083890120400,2.488120361328125,-2.2536299228668213,0.9950199723243713,2.5875489711761475
1752154083899973600,2.4979736328125,-0.8765519857406616,0.7475200295448303,-0.01649400033056736
1752154083909827000,2.5078271484375,-0.38015198707580566,-0.05415499955415726,-1.9952199459075928
1752154083919680500,2.517680419921875,0.3334360122680664,-1.0768200159072876,-0.8213919997215271
1752154083929533700,2.52753369140625,-1.1003810167312622,-1.3216509819030762,-1.5968619585037231
1752154083939387100,2.53738720703125,0.09028699994087219,-0.5260739922523499,-1.424813985824585
1752154083949240600,2.547240478515625,-0.5802010297775269,-0.32684800028800964,0.20332199335098267
1752154083959094000,2.557093994140625,-0.8841680288314819,0.7031480073928833,0.3426229953765869
1752154083968947200,2.566947265625,0.3057880103588104,0.4994089901447296,-4.362624168395996
1752154083978800600,2.576800537109375,-0.6880499720573425,0.34011000394821167,-2.308259963989258
1752154083988654000,2.586654052734375,-2.279917001724243,-0.8029900193214417,-0.8926290273666382
1752154083998507300,2.59650732421875,0.0983090028166771,-1.9930369853973389,-1.9897700548171997
1752154084008360700,2.606360595703125,-0.9027680158615112,-2.2114479541778564,-0.7107409834861755
1752154084018214100,2.616214111328125,-0.6682680249214172,-3.7951180934906006,-0.21304099261760712
1752154084028067600,2.626067626953125,-0.49327000975608826,-5.561481952667236,1.2114880084991455
1752154084037921000,2.635921142578125,-0.9046919941902161,-7.13746976852417,2.7153799533843994
1752154084047774500,2.6457744140625,-0.6274480223655701,-8.16171932220459,2.2429990768432617
1752154084057627600,2.655627685546875,-0.336914986371994,-8.569385528564453,1.9378360509872437
1752154084067480800,2.665480712890625,-0.08538100123405457,-4.624820232391357,0.8666759729385376
1752154084077334300,2.675334228515625,1.6775530576705933,-4.953193187713623,0.6001110076904297
1752154084087188000,2.68518798828125,0.5330269932746887,-4.53157377243042,1.4944989681243896
1752154084097041200,2.695041259765625,0.005925999954342842,-4.399724960327148,1.3072530031204224
1752154084106894600,2.70489453125,-1.1538690328598022,-3.9506070613861084,0.9513099789619446
1752154084116747800,2.714747802734375,-1.6227790117263794,-2.4662680625915527,-0.11721400171518326
1752154084126601200,2.724601318359375,-1.9308960437774658,0.6154829859733582,-0.04591299965977669
1752154084136454700,2.73445458984375,-0.4099070131778717,3.3008310794830322,0.2049109935760498
1752154084146308000,2.74430810546875,-1.436795949935913,4.814943790435791,-2.3388218879699707
1752154084156161300,2.754161376953125,-1.0523090362548828,4.539993762969971,-2.028564929962158
1752154084166014700,2.7640146484375,-0.6088230013847351,2.556781053543091,-1.5273410081863403
1752154084175868000,2.773867919921875,-0.1606680005788803,0.5930780172348022,-0.3507080078125
1752154084185721300,2.783721435546875,-0.07978499680757523,0.2669160068035126,-0.2511489987373352
1752154084195574800,2.79357470703125,-0.019222000613808632,-0.5849249958992004,-0.6882410049438477
1752154084205428200,2.80342822265625,0.7420600056648254,-1.04972505569458,1.8925319910049438
1752154084215281400,2.813281494140625,0.3194560110569,-0.5760759711265564,1.0800889730453491
1752154084225135000,2.823135009765625,-0.07170899957418442,-0.660040020942688,0.6965540051460266
1752154084234988300,2.83298828125,-0.10922399908304214,-0.5721210241317749,0.8085449934005737
1752154084244841700,2.842841796875,-0.11364299803972244,-0.24432499706745148,0.5288540124893188
1752154084254695200,2.852695068359375,0.0436829999089241,0.11296900361776352,0.46671101450920105
1752154084264548600,2.862548583984375,0.07687400281429291,0.6757310032844543,0.5790119767189026
1752154084274401800,2.87240185546875,0.07705599814653397,1.202612042427063,0.5237759947776794
1752154084284255000,2.8822548828125,0.18740999698638916,0.6859520077705383,0.42073601484298706
1752154084294108700,2.892108642578125,0.4544470012187958,-0.04352400079369545,0.24835699796676636
1752154084303961900,2.9019619140625,2.208026885986328,-0.1675879955291748,0.5128790140151978
1752154084313815300,2.911815185546875,-0.27901801466941833,-0.8926389813423157,0.6885319948196411
1752154084323668500,2.92166845703125,-2.138653039932251,1.3346630334854126,0.3862999975681305
1752154084333522200,2.931522216796875,-0.5439440011978149,4.210498809814453,0.6573690176010132
1752154084343375400,2.941375244140625,0.09129200130701065,2.5062808990478516,2.1272270679473877
1752154084353228500,2.951228515625,1.2786400318145752,2.1314480304718018,1.3238290548324585
1752154084363082000,2.96108203125,1.3859729766845703,1.5319700241088867,1.382606029510498
1752154084372935400,2.970935302734375,0.44376999139785767,1.0911829471588135,0.7452430129051208
1752154084382788900,2.980788818359375,-0.2909330129623413,1.2990100383758545,0.23833100497722626
1752154084392642000,2.99064208984375,-1.0856050252914429,1.2110129594802856,-0.38916000723838806
1752154084402495500,3.00049560546875,-0.4885460138320923,1.6830949783325195,0.4982840120792389
1752154084412349000,3.010348876953125,0.12219800055027008,2.1907958984375,0.1979849934577942
1752154084422202400,3.020202392578125,-2.684751033782959,4.567107200622559,-0.750560998916626
1752154084432055600,3.0300556640625,-1.947077989578247,2.9957010746002197,0.059165000915527344
1752154084441909000,3.039908935546875,-1.0517150163650513,3.476922035217285,-0.35677799582481384
1752154084451762400,3.049762451171875,-0.02143000066280365,2.471259117126465,0.5173460245132446
1752154084461615900,3.059615966796875,-1.2399770021438599,3.7572290897369385,0.38043099641799927
1752154084471469000,3.069468994140625,-3.4548180103302,3.760814905166626,-1.9561339616775513
1752154084481322500,3.079322509765625,-2.410048007965088,3.2464239597320557,-1.6118830442428589
1752154084491176000,3.089176025390625,-4.113027095794678,4.000578880310059,-1.2753679752349854
1752154084501029000,3.099029052734375,-2.480030059814453,2.5565109252929688,0.2184389978647232
1752154084510882600,3.108882568359375,0.3900969922542572,0.3758539855480194,0.007872000336647034
1752154084520736000,3.118736083984375,0.7349470257759094,1.3729490041732788,-1.1389460563659668
1752154084530589400,3.12858935546875,1.459043025970459,0.21701499819755554,-1.379027009010315
1752154084550296000,3.148296142578125,-0.35713300108909607,4.325168132781982,-1.0433419942855835
1752154084560149500,3.1581494140625,-1.982226014137268,4.928503036499023,-1.341681957244873
1752154084570002700,3.168002685546875,-3.5503931045532227,4.084670066833496,-2.692686080932617
1752154084579856400,3.1778564453125,-2.792678117752075,2.7699060440063477,-3.2277140617370605
1752154084589709800,3.187709716796875,0.8775529861450195,-1.8467249870300293,-1.525683045387268
1752154084599563000,3.19756298828125,-3.3751420974731445,-1.9282350540161133,-1.7134439945220947
1752154084609416200,3.207416259765625,-0.07321500033140182,-8.21462631225586,-2.466403007507324
1752154084619269600,3.21726953125,2.9495038986206055,-15.080156326293945,0.08703599870204926
1752154084629123000,3.227123046875,3.3524630069732666,-18.025859832763672,5.858852863311768
1752154084638976500,3.2369765625,-0.24646499752998352,-12.441534996032715,6.934922218322754
1752154084648830000,3.246829833984375,-0.4770059883594513,-8.913874626159668,3.242671012878418
1752154084658683400,3.256683349609375,-0.7094429731369019,-8.126137733459473,1.2127799987792969
1752154084668536600,3.26653662109375,0.3223249912261963,-8.034672737121582,0.7780929803848267
1752154084678389800,3.2763896484375,1.1665019989013672,-6.862277984619141,0.21475599706172943
1752154084688243200,3.2862431640625,1.341547966003418,-5.311948776245117,-0.5418090224266052
1752154084698096600,3.2960966796875,0.781266987323761,-5.323254108428955,-0.7871990203857422
1752154084707950000,3.3059501953125,0.8350009918212891,-5.1550421714782715,-1.231415033340454
1752154084717803300,3.31580322265625,0.5994349718093872,-5.058868885040283,-1.5760129690170288
1752154084727656700,3.32565673828125,0.2584410011768341,-5.045278072357178,-1.6869289875030518
1752154084737510100,3.33551025390625,-0.4269010126590729,-4.982851982116699,-1.4421720504760742
1752154084747363600,3.345363525390625,-2.120659112930298,-3.977487087249756,-1.289486050605774
1752154084757217000,3.355217041015625,-3.953528881072998,-0.23607200384140015,-2.248613119125366
1752154084767070500,3.365070556640625,-0.4481399953365326,4.483434200286865,-2.9980900287628174
1752154084776923600,3.374923583984375,1.8745360374450684,8.090119361877441,-1.603039026260376
1752154084786777000,3.384777099609375,-0.24798500537872314,7.363899230957031,-0.4234209954738617
1752154084796630500,3.394630615234375,-1.989035964012146,4.245835781097412,0.46693500876426697
1752154084806484000,3.40448388671875,-2.0133988857269287,2.455631971359253,0.3786369860172272
1752154084816337200,3.414337158203125,-0.9905660152435303,0.8014310002326965,0.10691100358963013
1752154084826190600,3.424190673828125,-0.7703570127487183,-0.11101900041103363,-0.04407599940896034
1752154084836044000,3.4340439453125,-0.15775799751281738,-0.6991519927978516,0.5518820285797119
1752154084845897500,3.4438974609375,0.1595979928970337,-1.079882025718689,0.6091700196266174
1752154084855750700,3.453750732421875,0.4264810085296631,-1.5849449634552002,0.7564589977264404
1752154084865603800,3.463603759765625,0.6895840167999268,-1.817352056503296,0.9469069838523865
1752154084875457500,3.47345751953125,0.7611169815063477,-1.9421579837799072,1.0687060356140137
1752154084885311000,3.48331103515625,0.7072839736938477,-1.8829469680786133,1.11217200756073
1752154084895164200,3.4931640625,0.23120899498462677,-1.4717479944229126,1.0999579429626465
1752154084905017900,3.503017822265625,-0.309906005859375,-0.9761530160903931,0.9490320086479187
1752154084914871000,3.51287109375,-0.6956239938735962,-0.46213600039482117,0.7490059733390808
1752154084924724500,3.522724365234375,-0.8063730001449585,0.01779700070619583,0.5063470005989075
1752154084934578000,3.532577880859375,-0.7258020043373108,0.2920849919319153,0.40576499700546265
1752154084944431400,3.542431396484375,-0.46836501359939575,0.40077000856399536,0.5230230093002319
1752154084954284500,3.552284423828125,-0.22557500004768372,0.4445219933986664,0.5970330238342285
1752154084964138000,3.562137939453125,-0.028203999623656273,0.36172598600387573,0.6474800109863281
1752154084973991400,3.571991455078125,0.014247000217437744,0.17841699719429016,0.6611549854278564
1752154084983844900,3.581844970703125,-0.05010199919342995,0.01966799981892109,0.601302981376648
1752154084993698000,3.591697998046875,-0.17315100133419037,-0.23538200557231903,0.6530010104179382
1752154085003551700,3.6015517578125,-0.24022500216960907,-0.5489919781684875,0.719124972820282
1752154085013405000,3.611405029296875,-0.28797900676727295,-0.7680320143699646,0.7792900204658508
1752154085023258400,3.62125830078125,-0.23547600209712982,-0.9252129793167114,0.7623890042304993
1752154085033111800,3.63111181640625,-0.3320370018482208,-0.9515129923820496,0.5623819828033447
1752154085042965200,3.64096533203125,-0.3765769898891449,-0.8610699772834778,0.37623700499534607
1752154085052818400,3.650818359375,-0.3714590072631836,-0.7659209966659546,0.08974400162696838
1752154085062672000,3.660671875,-0.2760379910469055,-0.6405929923057556,-0.19780799746513367
1752154085072525300,3.670525390625,-0.1644269973039627,-0.5171359777450562,-0.3430880010128021
1752154085082378800,3.680378662109375,-0.06046599894762039,-0.45581701397895813,-0.34300100803375244
1752154085092232000,3.69023193359375,-0.0022269999608397484,-0.4634059965610504,-0.29923200607299805
1752154085102085400,3.70008544921875,0.003398000029847026,-0.49129900336265564,-0.2415049970149994
1752154085111938800,3.709938720703125,-0.023865999653935432,-0.5657619833946228,-0.20793099701404572
1752154085121792300,3.719792236328125,-0.04565099999308586,-0.6001840233802795,-0.1886110007762909
1752154085131645400,3.7296455078125,-0.03572399914264679,-0.6544860005378723,-0.1612440049648285
1752154085141499100,3.7394990234375,0.07483100146055222,-0.6702290177345276,-0.08364199846982956
1752154085151352300,3.749352294921875,0.14693500101566315,-0.691415011882782,0.04896000027656555
1752154085161205800,3.759205810546875,0.163782000541687,-0.7324060201644897,0.23215200006961823
1752154085171059000,3.769058837890625,0.09903299808502197,-0.6709079742431641,0.36335599422454834
1752154085180912600,3.77891259765625,-0.046838998794555664,-0.6105089783668518,0.4684610068798065
1752154085190765800,3.788765869140625,-0.12541000545024872,-0.48662298917770386,0.5427250266075134
1752154085200619300,3.798619384765625,-0.13438700139522552,-0.42866599559783936,0.5125100016593933
1752154085210472700,3.80847265625,-0.10048799961805344,-0.4595479965209961,0.5219029784202576
1752154085220326100,3.818326171875,-0.09565400332212448,-0.6038320064544678,0.5897769927978516
1752154085230179600,3.8281796875,-0.06290999799966812,-0.7053300142288208,0.651885986328125
1752154085240032800,3.83803271484375,-0.09787900000810623,-0.8420339822769165,0.6132689714431763
1752154085249886500,3.847886474609375,-0.1576790064573288,-0.7466149926185608,0.44773998856544495
1752154085259740000,3.857739990234375,-0.21057499945163727,-0.6707090139389038,0.2599030137062073
1752154085269593000,3.867593017578125,-0.2517620027065277,-0.4779140055179596,0.13334600627422333
1752154085279446500,3.877446533203125,-0.1686280071735382,-0.35245999693870544,0.048523999750614166
1752154085289300000,3.887300048828125,-0.11934199929237366,-0.21342499554157257,-0.07326199859380722
1752154085299153200,3.897153076171875,-0.020047999918460846,-0.1660660058259964,-0.17479300498962402
1752154085309006600,3.907006591796875,-0.03597800061106682,-0.08800099790096283,-0.29354000091552734
1752154085318860000,3.916860107421875,-0.14754900336265564,-0.11131700128316879,-0.3382290005683899
1752154085328713500,3.92671337890625,-0.19175000488758087,-0.21779200434684753,-0.3627069890499115
1752154085338566700,3.936566650390625,-0.07291799783706665,-0.27636000514030457,-0.42696699500083923
1752154085348420000,3.946420166015625,0.12258400022983551,-0.39586201310157776,-0.39993101358413696
1752154085358273800,3.956273681640625,0.45194199681282043,-0.5636000037193298,-0.23203399777412415
1752154085368127000,3.966126953125,0.866811990737915,-0.9078670144081116,0.0973920002579689
1752154085377980200,3.975980224609375,1.4745490550994873,-1.4201539754867554,0.39149099588394165
1752154085387833900,3.985833740234375,2.028294086456299,-2.0544869899749756,0.7785829901695251
1752154085397687000,3.99568701171875,2.4608750343322754,-2.656622886657715,1.2102279663085938
1752154085407540500,4.00554052734375,2.5301530361175537,-3.2161269187927246,1.6851979494094849
1752154085417394200,4.015394287109375,2.0728819370269775,-3.8018438816070557,2.141697883605957
1752154085427247400,4.025247314453125,1.467555046081543,-3.9591739177703857,2.0964651107788086
1752154085437100800,4.035100830078125,0.6772630214691162,-3.2763619422912598,1.4131590127944946
1752154085446954000,4.0449541015625,-0.14813999831676483,-2.0340209007263184,0.46855801343917847
1752154085456807400,4.054807373046875,-0.9319589734077454,-0.6295719742774963,-0.4168280065059662
1752154085466660900,4.064660888671875,-1.554468035697937,0.9194729924201965,-1.1897180080413818
1752154085476514300,4.074514404296875,-1.995597004890442,2.0909910202026367,-1.8537260293960571
1752154085486367500,4.084367431640625,-2.198657989501953,2.71501088142395,-2.532815933227539
1752154085496221200,4.09422119140625,-2.318135976791382,2.7652220726013184,-2.827070951461792
1752154085506074400,4.104074462890625,-2.6756789684295654,2.537834882736206,-2.8787760734558105
1752154085515927800,4.113927734375,-3.0149269104003906,2.167335033416748,-2.4311890602111816
1752154085525781500,4.123781494140625,-3.0844359397888184,1.700631022453308,-1.730936050415039
1752154085535634700,4.133634765625,-3.128528118133545,1.255213975906372,-0.8212419748306274
1752154085545488100,4.143488037109375,-3.563602924346924,1.0749030113220215,-0.1862040013074875
1752154085555341300,4.15334130859375,-4.017865180969238,1.3416589498519897,0.07084000110626221
1752154085565195000,4.163195068359375,-4.562140941619873,1.8845219612121582,0.16891199350357056
1752154085575048200,4.173048095703125,-4.929623126983643,2.3995330333709717,0.06141199916601181
1752154085584901600,4.182901611328125,-5.150579929351807,2.6797780990600586,-0.019127000123262405
1752154085594755000,4.192755126953125,-4.920591831207275,2.898782968521118,-0.04836900159716606
1752154085604608500,4.2026083984375,-4.468955039978027,2.9332730770111084,0.01235899981111288
1752154085614461700,4.212461669921875,-3.5687570571899414,2.7055060863494873,0.1424030065536499
1752154085624315400,4.2223154296875,-1.4874809980392456,1.7346299886703491,0.5766270160675049
1752154085634168800,4.2321689453125,0.441211998462677,-1.1393179893493652,1.1830519437789917
1752154085644022000,4.24202197265625,1.4913870096206665,-2.7254409790039062,1.7023930549621582
1752154085653875700,4.251875732421875,2.6403799057006836,-2.874567985534668,2.200701951980591
1752154085663729000,4.26172900390625,5.409040927886963,-3.230828046798706,2.7070329189300537
1752154085673582300,4.271582275390625,10.31296443939209,-5.374957084655762,2.9258480072021484
1752154085683435800,4.281435791015625,13.403302192687988,-9.356195449829102,4.2058892250061035
1752154085693289200,4.291289306640625,11.708803176879883,-11.737136840820312,4.941455841064453
1752154085703142400,4.301142333984375,6.668839931488037,-10.418869018554688,3.7769908905029297
1752154085712996000,4.31099609375,1.8294429779052734,-7.279888153076172,2.3578600883483887
1752154085722849500,4.320849609375,-0.5147979855537415,-4.698954105377197,1.832605004310608
1752154085732702700,4.33070263671875,-0.565684974193573,-2.609452962875366,1.6002990007400513
1752154085742556200,4.34055615234375,0.06252799928188324,-1.2993830442428589,1.6885900497436523
1752154085752409600,4.35040966796875,0.039608001708984375,-0.4523859918117523,1.4922139644622803
1752154085762263000,4.360262939453125,-0.8238170146942139,1.095689058303833,0.46226799488067627
1752154085772116200,4.3701162109375,-2.130146026611328,2.464324951171875,-0.8003609776496887
1752154085781969700,4.3799697265625,-3.906414031982422,3.033679962158203,-1.4613529443740845
1752154085791823000,4.389822998046875,-5.4870829582214355,3.4788429737091064,-1.9430739879608154
1752154085801676500,4.399676513671875,-5.9679131507873535,3.6143620014190674,-2.074315071105957
1752154085811530000,4.409530029296875,-5.391147136688232,3.3505001068115234,-2.106333017349243
1752154085821383400,4.419383544921875,-4.715753078460693,2.751840114593506,-1.9380149841308594
1752154085831236900,4.42923681640625,-4.162498950958252,2.1720008850097656,-1.803400993347168
1752154085841090000,4.439090087890625,-3.7911460399627686,1.6996179819107056,-1.745134949684143
1752154085850943500,4.448943603515625,-3.371401071548462,1.177847981452942,-2.018075942993164
1752154085860797200,4.458797119140625,-3.027406930923462,0.9370710253715515,-2.5319080352783203
1752154085870650400,4.468650390625,-2.6584689617156982,1.0905489921569824,-3.1562130451202393
1752154085880503800,4.47850390625,-2.4605491161346436,1.3531739711761475,-3.479551076889038
1752154085890357200,4.488357177734375,-1.871757984161377,1.8813910484313965,-3.4613540172576904
1752154085900210700,4.498210693359375,-0.4285529851913452,2.5660979747772217,-3.142254114151001
1752154085910063900,4.50806396484375,1.5318150520324707,2.199728012084961,-2.578648090362549
1752154085919917600,4.51791748046875,3.0470941066741943,-0.41718000173568726,-0.9758269786834717
1752154085929771000,4.52777099609375,3.3862669467926025,-2.864098072052002,1.117305040359497
1752154085939624400,4.53762451171875,2.861135959625244,-4.008598804473877,2.411895990371704
1752154085949477600,4.5474775390625,2.1076250076293945,-4.792794227600098,2.9995150566101074
1752154085959331000,4.5573310546875,0.7577440142631531,-5.046098232269287,3.1783359050750732
1752154085969184500,4.5671845703125,-0.5200279951095581,-4.684276103973389,3.0381920337677
1752154085979037700,4.57703759765625,-0.603177011013031,-3.852005958557129,3.1526949405670166
1752154085988891400,4.586891357421875,0.35087698698043823,-2.657141923904419,2.532054901123047
1752154085998744800,4.596744873046875,0.9780790209770203,-1.251518964767456,2.013545036315918
1752154086008598000,4.606597900390625,0.8750290274620056,0.011026999913156033,1.6088509559631348
1752154086018451700,4.61645166015625,0.269571989774704,0.75661301612854,1.5077979564666748
1752154086028305000,4.626304931640625,-0.16864000260829926,0.8605260252952576,1.0475809574127197
1752154086038158300,4.636158447265625,-0.305525004863739,0.32211700081825256,0.5988249778747559
1752154086048011800,4.64601171875,-0.3057129979133606,-0.24721600115299225,0.38241299986839294
1752154086057865200,4.655865234375,-0.09527699649333954,-0.7787709832191467,0.23972700536251068
1752154086067718700,4.66571875,-0.08992899954319,-1.2148489952087402,-0.6416980028152466
1752154086077572000,4.675572021484375,-0.20308899879455566,-1.1362550258636475,-0.6473280191421509
1752154086087425500,4.685425537109375,-0.3198069930076599,-0.8923659920692444,-0.2513059973716736
1752154086097279000,4.695279052734375,-0.16776500642299652,-0.5309360027313232,-0.1712689995765686
1752154086107132200,4.705132080078125,-0.4198479950428009,0.12935200333595276,-0.30262601375579834
1752154086116985600,4.714985595703125,-0.45965299010276794,0.7218359708786011,0.0645660012960434
1752154086126839000,4.724839111328125,-0.05878400057554245,0.6660119891166687,-0.45384499430656433
1752154086136692500,4.7346923828125,0.2387630045413971,0.8037809729576111,-0.9300490021705627
1752154086146546000,4.7445458984375,0.3065980076789856,0.6353510022163391,-0.8797379732131958
1752154086156399400,4.7543994140625,0.5002170205116272,0.5255979895591736,-0.9698219895362854
1752154086166252800,4.764252685546875,0.24817900359630585,0.38224899768829346,-0.5888590216636658
1752154086176106200,4.774106201171875,0.5154690146446228,0.11711400002241135,-0.2082269936800003
1752154086185959400,4.78395947265625,0.6884059906005859,0.26861900091171265,-0.15224799513816833
1752154086195813000,4.793813232421875,0.21318599581718445,0.3529370129108429,0.49634599685668945
1752154086205666300,4.803666259765625,0.41647401452064514,0.7787140011787415,0.33411601185798645
1752154086215519700,4.813519775390625,0.3416140079498291,1.0799980163574219,0.32782700657844543
1752154086225373400,4.82337353515625,0.2470870018005371,1.2181869745254517,0.3797839879989624
1752154086235226600,4.8332265625,0.8072289824485779,1.3961429595947266,0.0572890006005764
1752154086245080000,4.843080078125,0.5943419933319092,1.3614579439163208,0.4024820029735565
1752154086254933500,4.85293359375,0.9128069877624512,1.3173409700393677,0.5310140252113342
1752154086264787000,4.862786865234375,0.5619890093803406,1.2129809856414795,1.2199549674987793
1752154086274640400,4.872640380859375,0.5157759785652161,1.2613660097122192,1.3555279970169067
1752154086284493800,4.882493896484375,0.29572099447250366,1.2771999835968018,1.7918150424957275
1752154086294347300,4.89234716796875,0.16759799420833588,1.3815439939498901,1.8758529424667358
1752154086304200700,4.90220068359375,-0.03641099855303764,1.4457440376281738,1.8792179822921753
1752154086314054100,4.91205419921875,-0.3225809931755066,1.4061650037765503,2.2854061126708984
1752154086323907600,4.921907470703125,-0.16588899493217468,1.3408069610595703,1.542754054069519
1752154086333760800,4.9317607421875,-0.2738319933414459,1.3496379852294922,1.9364960193634033
1752154086343614500,4.941614501953125,0.13538900017738342,1.2524139881134033,1.5940990447998047
1752154086353468000,4.951468017578125,-0.12984900176525116,1.2428120374679565,1.8413629531860352
1752154086363321000,4.961321044921875,0.7469769716262817,1.1389809846878052,0.9616029858589172
1752154086373174800,4.9711748046875,0.2116820067167282,1.1750739812850952,1.2528150081634521
1752154086383028200,4.9810283203125,0.7445060014724731,1.0472040176391602,0.9384179711341858
1752154086392881400,4.99088134765625,0.4242109954357147,1.0250719785690308,0.4813480079174042
1752154086402734800,5.00073486328125,0.38690701127052307,0.9067249894142151,0.7301049828529358
1752154086412588300,5.01058837890625,0.37943699955940247,0.7741960287094116,-0.06743399798870087
1752154086422441700,5.020441650390625,0.13045699894428253,0.6837260127067566,0.5880299806594849
1752154086432295200,5.030295166015625,0.3233869969844818,0.5343970060348511,-0.031286999583244324
1752154086442148600,5.040148681640625,-0.27074700593948364,0.509967029094696,0.7562479972839355
1752154086452002000,5.050001953125,0.2113730013370514,0.4052020013332367,-0.10578200221061707
1752154086461855500,5.05985546875,-0.3619050085544586,0.5310850143432617,0.5260480046272278
1752154086471709000,5.069708984375,0.22501200437545776,0.5696679949760437,-0.2924030125141144
1752154086481562400,5.079562255859375,-0.6406360268592834,0.7545509934425354,0.6960629820823669
1752154086491415800,5.089415771484375,0.30289599299430847,0.7191849946975708,-0.3013930022716522
1752154086501269200,5.099269287109375,-0.2802709937095642,0.8083980083465576,0.3850409984588623
1752154086511122700,5.109122802734375,0.4865869879722595,0.7562999725341797,-0.09509500116109848
1752154086520976000,5.118975830078125,-0.11317399889230728,0.7521139979362488,0.5008270144462585
1752154086530829600,5.12882958984375,0.6728709936141968,0.5930020213127136,-0.15382100641727448
1752154086540683000,5.13868310546875,-0.027828000485897064,0.6268690228462219,0.3964329957962036
1752154086550536200,5.1485361328125,0.6091160178184509,0.6044849753379822,0.09089499711990356
1752154086560390000,5.158389892578125,-0.2501470148563385,0.6985200047492981,0.8483960032463074
1752154086570243300,5.168243408203125,0.5587090253829956,0.836663007736206,0.22289399802684784
1752154086580096500,5.178096435546875,-0.10467000305652618,1.0440720319747925,0.7422540187835693
1752154086589950200,5.1879501953125,0.4123559892177582,1.1773409843444824,0.6273589730262756
1752154086599803600,5.1978037109375,-0.3508619964122772,1.3674609661102295,1.094254970550537
1752154086609657000,5.207656982421875,0.3009600043296814,1.5018030405044556,0.5245190262794495
1752154086619510500,5.217510498046875,-0.26980599761009216,1.6677459478378296,0.905472993850708
1752154086629364000,5.227364013671875,0.32808101177215576,1.6618740558624268,0.6974939703941345
1752154086639217400,5.237217529296875,-0.18163299560546875,1.7272800207138062,1.1971579790115356
1752154086649070600,5.247070556640625,0.4435819983482361,1.5906529426574707,0.7150279879570007
1752154086658924300,5.25692431640625,0.19530199468135834,1.5724380016326904,1.0174829959869385
1752154086668777500,5.266777587890625,0.5624420046806335,1.2828060388565063,0.9601070284843445
1752154086678631000,5.276630859375,0.13248099386692047,1.22455894947052,1.2388249635696411
1752154086688484400,5.286484375,0.5331779718399048,0.8978070020675659,0.7762809991836548
1752154086698337800,5.296337890625,0.4982590079307556,0.8794810175895691,0.8350309729576111
1752154086708191200,5.306191162109375,0.6741520166397095,0.7220709919929504,0.7666270136833191
1752154086718044700,5.316044677734375,0.5078020095825195,0.7516270279884338,0.9423670172691345
1752154086727898000,5.325898193359375,0.5495210289955139,0.7302759885787964,0.6215699911117554
1752154086737751600,5.33575146484375,0.3905380070209503,0.8386750221252441,0.7398070096969604
1752154086747605000,5.34560498046875,0.18158400058746338,1.070032000541687,0.7544980049133301
1752154086757458700,5.355458740234375,0.2534730136394501,1.0289969444274902,0.8994429707527161
1752154086767312000,5.365311767578125,-0.06901100277900696,0.9388489723205566,0.8519330024719238
1752154086777165600,5.37516552734375,0.2815130054950714,0.7618370056152344,0.6348289847373962
1752154086787018800,5.385018798828125,-0.11004699766635895,0.770654022693634,0.6529560089111328
1752154086796872200,5.3948720703125,0.4962199926376343,0.5184019804000854,-0.01601799950003624
1752154086806725600,5.4047255859375,0.25538599491119385,0.5476440191268921,0.3192090094089508
1752154086816579000,5.4145791015625,0.8307430148124695,0.4050930142402649,0.06500300019979477
1752154086826432500,5.4244326171875,0.8219220042228699,0.48073598742485046,0.3029249906539917
1752154086836286000,5.434285888671875,0.9799150228500366,0.26792699098587036,-0.08769399672746658
1752154086846139400,5.444139404296875,0.5940529704093933,0.10654900223016739,0.19813700020313263
1752154086855992800,5.453992919921875,0.10464199632406235,0.05710899829864502,0.09408900141716003
1752154086865846300,5.46384619140625,0.10349900275468826,0.13326700031757355,-0.04318099841475487
1752154086875699700,5.47369970703125,-0.323293000459671,0.3785330057144165,0.26916900277137756
1752154086885553200,5.48355322265625,0.1708420068025589,0.5994200110435486,-0.2606779932975769
1752154086895406600,5.493406494140625,-0.10715000331401825,1.0033680200576782,0.29975301027297974
1752154086905260000,5.503260009765625,0.3998259902000427,1.2231149673461914,-0.3431839942932129
1752154086915113500,5.513113525390625,0.1284559965133667,1.2755810022354126,0.4670409858226776
1752154086924967000,5.522966796875,-0.2215529978275299,1.0894099473953247,0.08280400186777115
1752154086934820600,5.532820556640625,-0.35502099990844727,0.8696470260620117,0.25418999791145325
1752154086944673800,5.542673828125,-0.516090989112854,0.6945359706878662,0.468207985162735
1752154086954527200,5.55252734375,-0.08522500097751617,0.5523620247840881,0.3937990069389343
1752154086964381000,5.562380859375,-0.29244300723075867,0.7550309896469116,0.8846750259399414
1752154086974234400,5.572234375,0.44568300247192383,0.7893319725990295,0.5252670049667358
1752154086984087600,5.582087646484375,0.5706419944763184,0.9867839813232422,0.6646410226821899
1752154086993941200,5.591941162109375,0.47963500022888184,0.9238550066947937,0.653581976890564
1752154087003794400,5.60179443359375,0.7033360004425049,0.8577430248260498,0.43025800585746765
1752154087013648000,5.61164794921875,0.5722290277481079,0.6492350101470947,0.6429439783096313
1752154087023501300,5.621501220703125,0.8154609799385071,0.4472840130329132,0.2393759936094284
1752154087033355000,5.63135498046875,0.277974009513855,0.5417609810829163,0.8133999705314636
1752154087043208200,5.641208251953125,0.37406298518180847,0.3909980058670044,0.4387019872665405
1752154087053061600,5.6510615234375,0.3957099914550781,0.4169810116291046,0.2515619993209839
1752154087062915300,5.660915283203125,0.08460500091314316,0.9519039988517761,0.6497439742088318
1752154087072768500,5.6707685546875,0.4113059937953949,0.9461510181427002,-0.023559000343084335
1752154087082622000,5.6806220703125,0.1138010025024414,1.260794997215271,0.42087799310684204
1752154087092475600,5.6904755859375,0.0481019988656044,1.06564199924469,0.1520339995622635
1752154087102328800,5.700328857421875,0.014000000432133675,0.8496760129928589,0.28467199206352234
1752154087112182500,5.7101826171875,0.02837499976158142,0.8873559832572937,0.24820999801158905
1752154087122036000,5.720035888671875,0.5951380133628845,0.6042450070381165,-0.3857809901237488
1752154087131889400,5.729889404296875,0.73649001121521,0.7431120276451111,0.44760000705718994
1752154087141742800,5.739742919921875,1.1898430585861206,0.361162006855011,0.040178000926971436
1752154087151596300,5.74959619140625,1.513273000717163,0.4845840036869049,0.24977600574493408
1752154087161449700,5.75944970703125,0.670524001121521,0.6280099749565125,0.9790629744529724
1752154087171303200,5.76930322265625,1.0564600229263306,0.4218659996986389,0.22897399961948395
1752154087181156600,5.779156494140625,0.09745799750089645,0.8460789918899536,0.8621940016746521
1752154087191010000,5.789010009765625,-0.17556500434875488,0.591946005821228,0.3032749891281128
1752154087200863500,5.798863525390625,-0.5717549920082092,0.8106369972229004,0.694229006767273
1752154087210717000,5.808717041015625,-0.5222319960594177,0.8087990283966064,0.09484899789094925
1752154087220570400,5.8185703125,-0.33755001425743103,0.8222140073776245,-0.3438909947872162
1752154087230423800,5.828423828125,-0.5248900055885315,1.2271720170974731,0.1899529993534088
1752154087240277200,5.83827734375,0.22859500348567963,1.0320570468902588,-0.597029983997345
1752154087250130700,5.848130615234375,0.056341998279094696,1.4182480573654175,-0.1542389988899231
1752154087259984100,5.857984130859375,0.005979999899864197,1.3154670000076294,-0.24632999300956726
1752154087269837800,5.867837890625,0.4679259955883026,1.2023589611053467,-0.14130599796772003
1752154087279691300,5.877691162109375,0.21212899684906006,1.0645829439163208,0.10042700171470642
1752154087289544400,5.88754443359375,0.3702239990234375,0.783797025680542,0.22322100400924683
1752154087299398100,5.897398193359375,0.6347050070762634,0.6612750291824341,0.9875109791755676
1752154087309251300,5.907251220703125,1.1247830390930176,0.2529579997062683,0.5927370190620422
1752154087319104800,5.917104736328125,1.2781219482421875,0.3678399920463562,1.0914820432662964
1752154087328958200,5.926958251953125,0.626708984375,0.4485369920730591,2.031402111053467
1752154087338811600,5.936811767578125,1.3726379871368408,0.0860539972782135,1.189365029335022
1752154087348665000,5.9466650390625,0.26225700974464417,0.7041100263595581,1.841644048690796
1752154087358518800,5.956518798828125,0.7903609871864319,0.49909600615501404,1.0239160060882568
1752154087368372200,5.966372314453125,0.31925299763679504,0.8235039710998535,1.4494760036468506
1752154087378225700,5.9762255859375,-0.16069099307060242,1.0213559865951538,0.8305119872093201
1752154087388079000,5.9860791015625,-0.06305400282144547,0.9161530137062073,1.1345809698104858
1752154087397932500,5.9959326171875,0.11942800134420395,1.0865490436553955,0.9749699831008911
1752154087407786000,6.005785888671875,0.0405380018055439,1.2360780239105225,0.6624640226364136
1752154087417639400,6.015639404296875,-0.11040700227022171,1.6592010259628296,0.6383200287818909
1752154087427492900,6.025492919921875,0.5721690058708191,1.3886929750442505,0.17792199552059174
1752154087437346300,6.03534619140625,0.14749599993228912,1.7485829591751099,0.17042100429534912
1752154087447200000,6.045199951171875,-0.033858999609947205,1.7685999870300293,-0.029772000387310982
1752154087457053200,6.05505322265625,0.0647130012512207,1.5711599588394165,0.3174690008163452
1752154087466906600,6.06490673828125,0.6043230295181274,1.078004002571106,-0.049956999719142914
1752154087476760300,6.07476025390625,0.6439859867095947,0.8955140113830566,-0.09345100075006485
1752154087486613800,6.08461376953125,0.796343982219696,0.4621739983558655,0.34382298588752747
1752154087496467000,6.094467041015625,0.8640469908714294,0.31004899740219116,0.0728129968047142
1752154087506320600,6.104320556640625,-0.07846300303936005,0.5947179794311523,0.49773499369621277
1752154087516174000,6.114174072265625,-0.18853799998760223,0.44878000020980835,0.44691601395606995
1752154087526027500,6.124027587890625,-0.41343799233436584,0.5146059989929199,0.6089900135993958
1752154087535881000,6.133880859375,-0.31548500061035156,0.802295982837677,0.2838220000267029
1752154087545734400,6.143734375,-0.38420799374580383,1.2381529808044434,-0.07488299906253815
1752154087555587800,6.153587890625,0.13811899721622467,1.5604979991912842,-0.22215400636196136
1752154087565441500,6.163441650390625,0.26893100142478943,1.8955450057983398,-0.4050680100917816
1752154087575294700,6.173294677734375,0.03946999832987785,2.0848701000213623,0.0610090009868145
1752154087585148200,6.183148193359375,-0.5223810076713562,1.9576640129089355,0.6672130227088928
1752154087595001900,6.193001953125,0.23240399360656738,1.3609639406204224,0.3029850125312805
1752154087604855000,6.20285498046875,0.20789599418640137,0.832597017288208,0.1961359977722168
1752154087614708700,6.212708740234375,0.641414999961853,0.09477300196886063,0.44667500257492065
1752154087624562200,6.222562255859375,0.7238659858703613,-0.5741819739341736,0.6468110084533691
1752154087634415600,6.23241552734375,1.2290270328521729,-1.2454609870910645,0.46931400895118713
1752154087644268800,6.242268798828125,0.24337300658226013,-1.367480993270874,0.9285550117492676
1752154087654122500,6.25212255859375,0.0901700034737587,-1.8363219499588013,1.101578950881958
1752154087663976000,6.261975830078125,-0.13370800018310547,-1.9340349435806274,0.949317991733551
1752154087673829400,6.271829345703125,-0.33493098616600037,-1.7610089778900146,0.5725769996643066
1752154087683683000,6.28168310546875,-0.3015249967575073,-1.558608055114746,-0.005896999966353178
1752154087703389700,6.3013896484375,-0.18391400575637817,-1.0016579627990723,-1.1860870122909546
1752154087713243400,6.311243408203125,-0.2728149890899658,-0.7205960154533386,-1.3489129543304443
1752154087723096800,6.321096923828125,-0.35201600193977356,-0.8748509883880615,-0.8639079928398132
1752154087732950300,6.3309501953125,0.26406899094581604,-0.8902459740638733,-1.2825579643249512
1752154087742803700,6.3408037109375,0.3320710062980652,-0.5752540230751038,-0.6277030110359192
1752154087752657200,6.3506572265625,0.674310028553009,-0.4198780059814453,-0.5561590194702148
1752154087762510300,6.36051025390625,1.6485340595245361,-0.3416540026664734,-0.446289986371994
1752154087772364000,6.370364013671875,0.9633359909057617,-0.3339810073375702,-0.11305499821901321
1752154087782217500,6.380217529296875,1.3580199480056763,-0.41009199619293213,-0.15616099536418915
1752154087792071000,6.39007080078125,0.8979550004005432,-0.5720130205154419,0.3901880085468292
1752154087801924600,6.399924560546875,1.1246320009231567,-0.6715689897537231,-0.18029199540615082
1752154087811777800,6.40977783203125,0.06734000146389008,-0.25184300541877747,0.11795900017023087
1752154087821631200,6.41963134765625,-0.8814299702644348,0.22972199320793152,0.6618710160255432
1752154087831485000,6.42948486328125,-0.7906500101089478,0.4824979901313782,0.7687990069389343
1752154087841338400,6.43933837890625,-1.3922150135040283,0.7813979983329773,1.3670109510421753
1752154087851191600,6.449191650390625,-0.8103219866752625,0.7498329877853394,1.2861160039901733
1752154087861045200,6.459045166015625,-0.2541170120239258,0.8907549977302551,1.1052130460739136
1752154087870898700,6.468898681640625,-0.5009490251541138,0.8620030283927917,1.4654890298843384
1752154087880752000,6.478752197265625,0.23774200677871704,0.7506830096244812,0.7903609871864319
1752154087890605600,6.48860546875,0.21317100524902344,0.5857049822807312,1.0454720258712769
1752154087900459000,6.498458984375,-0.2700600028038025,0.058044999837875366,1.307515025138855
1752154087910312400,6.5083125,0.8295530080795288,-0.20045100152492523,0.19890299439430237
1752154087920166100,6.518166259765625,-0.2853659987449646,-0.17752699553966522,1.000972032546997
1752154087930019300,6.528019287109375,0.05732399970293045,-0.6840429902076721,0.4697149991989136
1752154087939872800,6.537872802734375,0.5629580020904541,-0.8199179768562317,0.057728998363018036
1752154087949726500,6.5477265625,-0.30344799160957336,-1.0313940048217773,0.6771320104598999
1752154087959580000,6.557579833984375,0.5503519773483276,-1.0509010553359985,-0.4665989875793457
1752154087969433300,6.567433349609375,0.5902649760246277,-0.6690670251846313,-0.9092270135879517
1752154087979286800,6.577286865234375,-0.22605900466442108,-0.442452996969223,-0.4180760085582733
1752154087989140200,6.58714013671875,0.6454780101776123,-0.42380601167678833,-0.8523359894752502
1752154087998993700,6.59699365234375,0.9400439858436584,-0.27301299571990967,-0.9423480033874512
1752154088008847000,6.60684716796875,-0.39769500494003296,-0.006380999926477671,-0.08419500291347504
1752154088018700500,6.616700439453125,0.42656999826431274,0.06920599937438965,-0.8459169864654541
1752154088028554200,6.62655419921875,-0.07079800218343735,0.22062000632286072,-0.5303189754486084
1752154088038407700,6.63640771484375,-0.8083410263061523,0.051162999123334885,0.09356699883937836
1752154088048260900,6.6462607421875,-0.10404200106859207,-0.14880700409412384,-0.35915300250053406
1752154088058114600,6.656114501953125,0.07791099697351456,-0.39083001017570496,-0.15324200689792633
1752154088067968000,6.665968017578125,-0.6616439819335938,-0.6066309809684753,0.5869960188865662
1752154088077821400,6.675821533203125,0.542227029800415,-0.656358003616333,-0.11608800292015076
1752154088087675000,6.6856748046875,0.7896109819412231,-0.4719110131263733,0.1748100072145462
1752154088097528300,6.6955283203125,0.28841298818588257,-0.40647101402282715,0.7095800042152405
1752154088107381800,6.7053818359375,1.0431430339813232,-0.7419120073318481,0.2141299992799759
1752154088117235500,6.7152353515625,1.155480980873108,-0.6586740016937256,0.24028000235557556
1752154088127089000,6.7250888671875,-0.4128879904747009,-0.45479699969291687,1.2307770252227783
1752154088136942000,6.734942138671875,-0.5976319909095764,-0.2620309889316559,0.9852799773216248
1752154088146795500,6.74479541015625,-0.5497729778289795,-0.216729998588562,0.840487003326416
1752154088156649200,6.754649169921875,-1.1240270137786865,-0.4634909927845001,1.25553297996521
1752154088166502700,6.764502685546875,-0.8557189702987671,-0.7033489942550659,0.8553889989852905
1752154088176356000,6.774356201171875,0.560774028301239,-0.7345449924468994,-0.5210739970207214
1752154088186209500,6.78420947265625,0.23187699913978577,-0.5679000020027161,-0.06801500171422958
1752154088196063000,6.79406298828125,-0.3991580009460449,-0.4956830143928528,0.10500100255012512
1752154088205916400,6.80391650390625,0.41966599225997925,-0.07398000359535217,-0.7055730223655701
1752154088215770000,6.81377001953125,0.45473799109458923,0.31118500232696533,-0.6566640138626099
1752154088225623600,6.82362353515625,-0.4563719928264618,0.45527198910713196,-0.0002570000069681555
1752154088235476700,6.833476806640625,-0.19654899835586548,0.015035999938845634,-0.0770689994096756
1752154088245330400,6.843330322265625,1.0828330516815186,-0.2534259855747223,-0.598779022693634
1752154088255184000,6.853183837890625,0.3168190121650696,-0.6322759985923767,0.09796299785375595
1752154088265037600,6.86303759765625,-0.27466699481010437,-0.8732010126113892,0.6296319961547852
1752154088274890800,6.872890869140625,1.035912036895752,-1.2033360004425049,0.1314609944820404
1752154088284744200,6.882744140625,1.0554300546646118,-1.349586009979248,0.86838299036026
1752154088294597600,6.89259765625,1.4120320081710815,-1.467108964920044,1.4470349550247192
1752154088304451300,6.902451416015625,3.083815097808838,-1.8086529970169067,1.173274040222168
1752154088314304800,6.9123046875,3.256408929824829,-1.9559450149536133,0.7699509859085083
1752154088324158200,6.922158203125,2.4379661083221436,-1.8441259860992432,0.4462589919567108
1752154088334011600,6.93201171875,2.0765609741210938,-1.8069239854812622,-0.35539698600769043
1752154088343865000,6.941864990234375,2.044991970062256,-1.8589849472045898,-1.2262909412384033
1752154088353718500,6.951718505859375,0.834879994392395,-1.6606709957122803,-1.0814460515975952
1752154088363572200,6.961572265625,-1.141569972038269,-1.110671043395996,-0.4587250053882599
1752154088373425400,6.97142529296875,-2.0019729137420654,-0.4690439999103546,-0.4743959903717041
1752154088383279000,6.981279052734375,-2.160675048828125,0.14646700024604797,-0.7046250104904175
1752154088393132500,6.991132568359375,-2.7148149013519287,0.5289760231971741,-0.5039839744567871
1752154088402985700,7.00098583984375,-2.909579038619995,0.6505510210990906,-0.6765909790992737
1752154088412839400,7.01083935546875,-1.989678978919983,0.5841270089149475,-1.4497309923171997
1752154088422692900,7.02069287109375,-2.367579936981201,0.5350000262260437,-1.361212968826294
1752154088432546300,7.03054638671875,-3.5388998985290527,0.33926498889923096,-1.0680769681930542
1752154088442399700,7.040399658203125,-3.4872660636901855,0.07427199929952621,-1.549481987953186
1752154088452253200,7.050253173828125,-3.5110130310058594,0.07346899807453156,-1.7319010496139526
1752154088462106600,7.060106689453125,-5.762176990509033,0.23977600038051605,-0.764394998550415
1752154088471960300,7.069960205078125,-5.032501220703125,0.49881699681282043,-1.7315770387649536
1752154088481813800,7.079813720703125,-4.188069820404053,0.9692909717559814,-1.884835958480835
1752154088491667200,7.089667236328125,-5.7024922370910645,0.928413987159729,-0.4253840148448944
1752154088501520600,7.099520751953125,-4.72582483291626,0.8184750080108643,-0.9997239708900452
1752154088511374000,7.1093740234375,-5.117818832397461,0.677528977394104,-0.2920669913291931
1752154088521227500,7.1192275390625,-5.4806318283081055,0.2857609987258911,-0.01936900056898594
1752154088531081000,7.1290810546875,-3.839387893676758,0.11798600107431412,-0.6533960103988647
1752154088540934400,7.138934326171875,-2.4739699363708496,0.20169000327587128,-0.3109619915485382
1752154088550787800,7.148787841796875,0.20161400735378265,-0.6293590068817139,-0.3412710130214691
1752154088560641500,7.1586416015625,3.43742299079895,-3.2557849884033203,0.22738200426101685
1752154088570495000,7.168494873046875,6.187325954437256,-6.093177795410156,1.7976429462432861
1752154088580348400,7.178348388671875,7.490478992462158,-8.33027172088623,2.0345630645751953
1752154088590201900,7.188201904296875,3.9760611057281494,-9.69456672668457,2.2130000591278076
1752154088600055300,7.19805517578125,2.791996955871582,-7.796091079711914,-0.3337410092353821
1752154088609908700,7.20790869140625,3.972414016723633,-6.453052043914795,-1.7458560466766357
1752154088619762400,7.217762451171875,4.711668968200684,-8.168110847473145,-1.6497420072555542
1752154088629615900,7.227615966796875,7.399392127990723,-8.896061897277832,-2.3373429775238037
1752154088639469300,7.23746923828125,6.115116119384766,-8.821454048156738,-0.29445499181747437
1752154088649322800,7.24732275390625,5.368907928466797,-7.956311225891113,1.617419958114624
1752154088659176200,7.25717626953125,3.425365924835205,-6.4915971755981445,2.0140318870544434
1752154088669029600,7.267029541015625,1.1253479719161987,-4.933237075805664,1.7212539911270142
1752154088678883300,7.27688330078125,-0.6928820013999939,-2.9016969203948975,0.017465999349951744
1752154088688736500,7.286736572265625,-1.4974390268325806,-1.636657953262329,-0.7919279932975769
1752154088698590200,7.296590087890625,-1.8946260213851929,-0.7818760275840759,-1.8505829572677612
1752154088708443600,7.306443603515625,-2.7103710174560547,-0.0818450003862381,-3.3182380199432373
1752154088718297000,7.316297119140625,-4.5161871910095215,1.2979350090026855,-2.1514289379119873
1752154088728150500,7.326150634765625,-4.943262100219727,2.7480320930480957,-3.2138969898223877
1752154088738004200,7.336004150390625,-5.94766902923584,2.837057113647461,-2.270637035369873
1752154088747857400,7.345857421875,-5.338756084442139,1.846809983253479,-2.1704249382019043
1752154088757710800,7.3557109375,-4.463661193847656,1.142909049987793,-2.390873908996582
1752154088767564500,7.365564453125,-3.3433148860931396,0.27899500727653503,-2.902622938156128
1752154088777417700,7.375417724609375,-3.1092209815979004,-0.0630050003528595,-3.2658169269561768
1752154088787271400,7.385271484375,-2.597559928894043,-0.053266000002622604,-3.2303850650787354
1752154088797124900,7.395124755859375,-1.4189380407333374,0.12319900095462799,-3.684117078781128
1752154088806978300,7.404978271484375,1.0387879610061646,0.8476899862289429,-4.0530219078063965
1752154088816831700,7.414831787109375,3.602123975753784,1.588758945465088,-3.765083074569702
1752154088826685400,7.424685546875,6.979211807250977,0.016482999548316002,-3.211379051208496
1752154088836538600,7.43453857421875,7.757439136505127,-2.540632963180542,-1.6033869981765747
1752154088846392300,7.444392333984375,5.631686210632324,-3.917236089706421,0.3609969913959503
1752154088856245800,7.454245849609375,3.605376958847046,-4.340878963470459,2.0867409706115723
1752154088866099200,7.46409912109375,1.8249050378799438,-4.244597911834717,2.870767116546631
1752154088875952600,7.47395263671875,-0.003765000030398369,-3.3926820755004883,3.4833528995513916
1752154088885806000,7.48380615234375,-0.43717700242996216,-2.305509090423584,4.574185848236084
1752154088895659500,7.493659423828125,-0.04534899815917015,-1.413403034210205,4.586339950561523
1752154088905513000,7.503512939453125,-0.37876901030540466,-0.38730499148368835,4.745602130889893
1752154088915366700,7.51336669921875,-0.3278310000896454,0.5570700168609619,4.079606056213379
1752154088925220000,7.52322021484375,-1.0829459428787231,1.6764650344848633,3.1559510231018066
1752154088935073500,7.533073486328125,-1.7663359642028809,2.7558839321136475,1.9778929948806763
1752154088944927000,7.542927001953125,-2.7192258834838867,3.523063898086548,1.1449470520019531
1752154088954780400,7.552780517578125,-2.8057498931884766,3.6632790565490723,0.24055099487304688
1752154088964633900,7.5626337890625,-2.36004900932312,3.1115329265594482,-0.8716449737548828
1752154088974487600,7.572487548828125,-2.5415151119232178,2.514009952545166,-1.0217540264129639
1752154088984341000,7.582341064453125,-1.950232982635498,1.4019869565963745,-1.5553890466690063
1752154088994194400,7.5921943359375,-2.3580870628356934,0.6102049946784973,-0.9449340105056763
1752154089004048000,7.6020478515625,-1.7251739501953125,0.00392800010740757,-0.7417029738426208
1752154089013901300,7.6119013671875,-1.907804012298584,-0.5685409903526306,-0.07671400159597397
1752154089023754800,7.621754638671875,-0.5574219822883606,-1.1704210042953491,-0.8347839713096619
1752154089033608400,7.6316083984375,-1.2648299932479858,-1.0739350318908691,-0.3393639922142029
1752154089043461600,7.641461669921875,-0.006151000037789345,-0.9206010103225708,-0.6099370121955872
1752154089053315300,7.6513154296875,0.39593300223350525,-0.9730449914932251,-0.9601789712905884
1752154089063168800,7.661168701171875,1.3025569915771484,-0.8387150168418884,-1.202692985534668
1752154089073022200,7.671022216796875,1.6081839799880981,-0.8975970149040222,-1.8211419582366943
1752154089082876000,7.6808759765625,1.412369966506958,-0.5657849907875061,-1.6457949876785278
1752154089092729300,7.690729248046875,1.3944790363311768,-0.5977280139923096,-1.7426810264587402
1752154089102582800,7.700582763671875,0.8821470141410828,-0.3668459951877594,-0.9084650278091431
1752154089112436200,7.710436279296875,1.625622034072876,-0.578682005405426,-1.149312973022461
1752154089122289700,7.72028955078125,0.9809219837188721,-0.40314000844955444,-0.5205550193786621
1752154089132143000,7.73014306640625,1.0277049541473389,-0.5191890001296997,-0.3095090091228485
1752154089141996800,7.739996826171875,-0.05138399824500084,-0.6039149761199951,0.15586599707603455
1752154089151850000,7.74985009765625,-0.4541890025138855,-0.8729850053787231,-0.0904180034995079
1752154089161703700,7.75970361328125,-1.3247870206832886,-1.0810929536819458,-0.39434099197387695
1752154089171557000,7.76955712890625,-1.1905499696731567,-1.055819034576416,-0.5157080292701721
1752154089181410600,7.77941064453125,-1.4806629419326782,-1.0288950204849243,-0.4133790135383606
1752154089191264300,7.78926416015625,-0.7239689826965332,-0.7597200274467468,-0.43986600637435913
1752154089201117400,7.799117431640625,0.10346599668264389,-0.511139988899231,-0.7977679967880249
1752154089210971000,7.808970947265625,0.4847530126571655,-0.36609598994255066,-0.7397140264511108
1752154089220824600,7.818824462890625,0.8616830110549927,-0.007660999894142151,-1.0152759552001953
1752154089230678000,7.828677978515625,1.1506119966506958,0.18451599776744843,-0.3384999930858612
1752154089240531700,7.83853173828125,2.760422945022583,0.026996999979019165,0.05099400132894516
1752154089250385200,7.84838525390625,2.410291910171509,-0.06032799929380417,0.8893730044364929
1752154089260238600,7.858238525390625,2.7762160301208496,-0.054568998515605927,1.1389349699020386
1752154089270092000,7.868092041015625,2.5143399238586426,-0.10138200223445892,1.2414499521255493
1752154089279945500,7.877945556640625,2.9346909523010254,-0.5696269869804382,1.3051389455795288
1752154089289799200,7.887799072265625,1.411520004272461,-0.6771550178527832,1.5050510168075562
1752154089299652600,7.897652587890625,0.629414975643158,-0.7767819762229919,2.000598907470703
1752154089309506000,7.907506103515625,0.1490889936685562,-0.9537129998207092,2.1412370204925537
1752154089319359700,7.91735986328125,0.2489600032567978,-0.9640309810638428,1.552785038948059
1752154089329213200,7.927213134765625,0.4460870027542114,-0.9716749787330627,1.163167953491211
1752154089339066400,7.93706640625,0.16381299495697021,-0.9896529912948608,1.675874948501587
1752154089348920000,7.946920166015625,0.40421199798583984,-1.3411699533462524,1.9366719722747803
1752154089358773500,7.9567734375,-0.10856299847364426,-1.6550379991531372,2.523267984390259
1752154089368627000,7.966626953125,-0.010755999945104122,-2.104142904281616,2.2398719787597656
1752154089378480400,7.97648046875,-0.0941929966211319,-2.2253639698028564,1.3916679620742798
1752154089388334000,7.986333984375,0.0605509988963604,-2.1774790287017822,0.22290000319480896
1752154089398187300,7.996187255859375,0.20367999374866486,-2.2630600929260254,-1.1808710098266602
1752154089408041000,8.006041015625,-0.1981399953365326,-2.2724690437316895,-1.7658040523529053
1752154089417894400,8.015894287109376,-0.01569500006735325,-1.8173049688339233,-2.7431859970092773
1752154089427747800,8.025747802734376,-0.774183988571167,-1.2135180234909058,-2.7301390171051025
1752154089437601300,8.035601318359374,-1.132904052734375,-0.56495600938797,-2.579864025115967
1752154089447454700,8.045454833984374,-1.1229219436645508,-0.0447859987616539,-2.091717004776001
1752154089457308200,8.05530810546875,-0.9232820272445679,0.49317899346351624,-1.758067011833191
1752154089467161900,8.065161865234375,-1.2147459983825684,0.9312999844551086,-1.0655280351638794
1752154089477015300,8.075015380859375,-1.551805019378662,0.7568820118904114,-0.49394500255584717
1752154089486868700,8.08486865234375,-1.8048369884490967,0.5467259883880615,-0.9611909985542297
1752154089496722400,8.094722412109375,-2.262418031692505,0.44743600487709045,-1.591467022895813
1752154089506575600,8.10457568359375,-2.3041200637817383,0.5269100069999695,-1.6251139640808105
1752154089516429000,8.114428955078125,-2.31353497505188,0.32277101278305054,-1.2402950525283813
1752154089526282500,8.124282470703125,-1.6927570104599,0.11047399789094925,-0.6260570287704468
1752154089536136200,8.13413623046875,-1.5943479537963867,-0.20805299282073975,-0.3449609875679016
1752154089545989600,8.14398974609375,-1.6459170579910278,0.12095600366592407,-0.4845770001411438
1752154089555843300,8.15384326171875,-1.7006069421768188,0.38065698742866516,-0.5973979830741882
1752154089565696800,8.16369677734375,-1.1841709613800049,0.7622219920158386,-1.1296470165252686
1752154089575550000,8.173550048828124,-0.9999989867210388,0.8344870209693909,-1.1644389629364014
1752154089585403600,8.183403564453124,-0.9648299813270569,0.9614670276641846,-0.9229949712753296
1752154089595257000,8.193257080078125,-1.1925619840621948,0.7595499753952026,-0.5104569792747498
1752154089605110500,8.203110595703125,-1.1963770389556885,0.672012984752655,-0.6299070119857788
1752154089614964200,8.212964111328125,-0.9581649899482727,0.4765700101852417,-0.6850469708442688
1752154089624817400,8.2228173828125,-0.8651599884033203,0.5159890055656433,-0.3725399971008301
1752154089634670800,8.2326708984375,-0.5808349847793579,0.4731450080871582,-0.04733699932694435
1752154089644524500,8.242524658203125,0.1989459991455078,0.5146420001983643,0.20073899626731873
1752154089654378000,8.2523779296875,1.250128984451294,0.45707499980926514,0.5686079859733582
1752154089664231400,8.2622314453125,1.6244269609451294,0.4485119879245758,1.1703699827194214
1752154089674085000,8.272085205078126,1.8586519956588745,0.28616198897361755,1.2985130548477173
1752154089683938600,8.2819384765625,1.5981409549713135,-0.05999699980020523,1.0668840408325195
1752154089693792000,8.2917919921875,1.3778799772262573,-0.17299500107765198,1.0832560062408447
1752154089703645400,8.3016455078125,0.944383978843689,-0.09617000073194504,1.4562619924545288
1752154089713499000,8.311498779296874,1.006216049194336,0.0027169999666512012,1.5853630304336548
1752154089723352600,8.3213525390625,-0.21146799623966217,0.09957599639892578,2.234424114227295
1752154089733206000,8.3312060546875,-0.0020719999447464943,0.29733699560165405,1.9494960308074951
1752154089743059500,8.3410595703125,-0.9022449851036072,0.29403701424598694,2.0696980953216553
1752154089752913000,8.350912841796875,-0.21369799971580505,0.2593280076980591,1.3799829483032227
1752154089762766300,8.360766357421875,-0.499006986618042,-0.038465000689029694,0.7323430180549622
1752154089772620300,8.370620361328125,-0.10914699733257294,-0.31076499819755554,0.18993400037288666
1752154089782473500,8.380473388671875,-0.38278698921203613,-0.5333349704742432,0.3239080011844635
1752154089792327000,8.390326904296876,0.09407000243663788,-0.517300009727478,0.09661299735307693
1752154089802180600,8.4001806640625,0.1453379988670349,-0.6838859915733337,0.13889500498771667
1752154089812033800,8.41003369140625,0.8076440095901489,-1.100538969039917,-0.2542630136013031
1752154089821887200,8.41988720703125,0.8022310137748718,-1.471709966659546,-0.2794190049171448
1752154089831741000,8.429740966796874,1.5266480445861816,-1.7179549932479858,-0.9572830200195312
1752154089841594400,8.439594482421874,1.0538270473480225,-1.769953966140747,-1.0811580419540405
1752154089851447800,8.44944775390625,1.0438740253448486,-1.7102479934692383,-1.0700269937515259
1752154089861301500,8.459301513671875,0.3605169951915741,-1.4798870086669922,-0.7427330017089844
1752154089871155000,8.469155029296875,-0.07715199887752533,-1.1582030057907104,-0.92917400598526
1752154089881008400,8.47900830078125,-1.0360959768295288,-0.5714790225028992,-0.7922430038452148
1752154089890861800,8.48886181640625,-1.6569520235061646,-0.0540350005030632,-0.5820059776306152
1752154089900715300,8.49871533203125,-1.98191499710083,0.25483599305152893,-0.17140400409698486
1752154089910568700,8.508568603515625,-1.7855859994888306,0.3179120123386383,-0.3414810001850128
1752154089920422400,8.51842236328125,-1.4363839626312256,0.48591500520706177,-0.741470992565155
1752154089930275800,8.52827587890625,-1.557487964630127,0.3076690137386322,-0.4183279871940613
1752154089940129300,8.53812939453125,-0.7382559776306152,-0.11205799877643585,-0.33920300006866455
1752154089949982700,8.547982666015624,-0.27063998579978943,-0.5426499843597412,-0.1789969950914383
1752154089959836200,8.557836181640624,-0.018938999623060226,-0.8788639903068542,0.06372399628162384
1752154089969690000,8.567690185546875,-0.11775299906730652,-1.1175919771194458,0.3766379952430725
1752154089979543300,8.577543212890625,0.1263120025396347,-1.314816951751709,-0.20730100572109222
1752154089989396700,8.587396728515625,0.245401993393898,-1.291059970855713,-0.9107980132102966
1752154089999250200,8.597250244140625,-0.17194099724292755,-1.1178959608078003,-1.0542620420455933
1752154090009103600,8.607103515625,-0.06584399938583374,-0.8130940198898315,-0.9720579981803894
1752154090018957000,8.61695703125,-0.5548850297927856,-0.2941029965877533,-0.16537700593471527
1752154090028810800,8.626810791015625,-0.24182100594043732,0.40511900186538696,-0.49297401309013367
1752154090038664200,8.636664306640625,-0.27511200308799744,0.4584130048751831,0.09836199879646301
1752154090048517600,8.646517578125,0.4547640085220337,0.32852301001548767,-0.3499560058116913
1752154090058371300,8.656371337890626,0.6899470090866089,0.12693800032138824,-0.25120699405670166
1752154090068224500,8.666224609375,1.213060975074768,-0.0649069994688034,-0.42935800552368164
1752154090078078000,8.676077880859374,1.2643870115280151,-0.424699991941452,-0.0473329983651638
1752154090087931600,8.685931640625,1.5450170040130615,-0.755316972732544,-0.10270000249147415
1752154090097785000,8.69578515625,0.8100259900093079,-0.7118920087814331,0.24389700591564178
1752154090107638500,8.705638427734375,0.042233001440763474,-0.8258280158042908,1.0078879594802856
1752154090117492200,8.7154921875,-0.5121049880981445,-0.8849599957466125,1.466040015220642
1752154090127345400,8.725345458984375,-0.7380009889602661,-0.965067982673645,1.412561058998108
1752154090137199000,8.73519921875,-1.130547046661377,-0.5212050080299377,0.8178899884223938
1752154090147052500,8.745052490234375,-1.6661829948425293,-0.32778400182724,0.8622879981994629
1752154090156906000,8.754906005859375,-1.3028899431228638,0.009255999699234962,0.12999999523162842
1752154090166759700,8.764759765625,-1.2420580387115479,0.4904240071773529,-0.4102509915828705
1752154090176613000,8.774613037109376,-0.7302790284156799,0.9549739956855774,-0.25510600209236145
1752154090186466600,8.784466552734376,0.4920549988746643,1.1628210544586182,-0.09234199672937393
1752154090196320000,8.794320068359376,1.1730730533599854,0.944828987121582,0.519216001033783
1752154090206173400,8.80417333984375,2.3150410652160645,0.7336599826812744,0.15303300321102142
1752154090216027000,8.81402685546875,2.026197910308838,0.5174390077590942,0.7069740295410156
1752154090225880600,8.823880615234375,2.8537709712982178,0.2209080010652542,0.05072199925780296
1752154090235734000,8.833734130859375,1.6224479675292969,-0.022038999944925308,-0.11874199658632278
1752154090245587700,8.843587646484375,0.5000200271606445,-0.36198198795318604,0.4372999966144562
1752154090255441200,8.853441162109375,-0.6290330290794373,-0.4302290081977844,0.6990669965744019
1752154090265294300,8.86329443359375,-1.0840630531311035,-0.5463889837265015,1.0955229997634888
1752154090275148000,8.87314794921875,-0.7717310190200806,-0.5843219757080078,0.6024609804153442
1752154090285001500,8.88300146484375,-0.6621829867362976,-0.9395099878311157,0.9798920154571533
1752154090294855000,8.89285498046875,0.7166479825973511,-1.116433024406433,0.1685660034418106
1752154090304708600,8.90270849609375,0.8401259779930115,-1.063289999961853,0.3736799955368042
1752154090314562000,8.91256201171875,1.8091089725494385,-0.8640879988670349,-0.13915100693702698
1752154090324415500,8.92241552734375,1.8622000217437744,-0.932703971862793,-0.2318129986524582
1752154090334269000,8.93226904296875,1.695904016494751,-0.9192039966583252,-0.6484820246696472
1752154090344122400,8.942122314453124,1.1517690420150757,-0.5977969765663147,-1.2272889614105225
1752154090353975800,8.951975830078124,-0.36106300354003906,-0.41797399520874023,-0.440871000289917
1752154090363829500,8.96182958984375,-0.8535569906234741,-0.2540780007839203,-1.0565869808197021
1752154090373683000,8.971682861328125,-2.0156168937683105,0.3129830062389374,-0.4839879870414734
1752154090383536600,8.98153662109375,-2.388400077819824,0.7923700213432312,-0.39779698848724365
1752154090393389800,8.991389892578125,-1.927312970161438,0.8995059728622437,-0.32645899057388306
1752154090403243300,9.0012431640625,-1.3978270292282104,0.594281017780304,-0.3276210129261017
1752154090413097000,9.011096923828125,-0.030385000631213188,0.07024499773979187,-0.8064129948616028
1752154090422950400,9.020950439453125,0.17708300054073334,-0.38889598846435547,-0.00547399977222085
1752154090432803800,9.030803955078126,1.6808840036392212,-0.7397189736366272,-0.3644010126590729
1752154090442657500,9.040657470703126,1.4444420337677002,-0.959634006023407,0.009643999859690666
1752154090452510700,9.0505107421875,0.31321001052856445,-0.9536200165748596,0.8615859746932983
1752154090462364200,9.0603642578125,0.540690004825592,-0.8839210271835327,0.3205220103263855
1752154090472217900,9.0702177734375,-1.279067039489746,-0.4749630093574524,1.1122260093688965
1752154090482071300,9.0800712890625,-1.155277967453003,-0.10355199873447418,0.43171098828315735
1752154090491924700,9.0899248046875,-1.5104379653930664,0.14747700095176697,0.44007399678230286
1752154090501778400,9.0997783203125,-1.2269400358200073,0.3140920102596283,0.11636599898338318
1752154090511632000,9.1096318359375,-0.22111299633979797,0.40850400924682617,-0.5058500170707703
1752154090521485300,9.1194853515625,-0.46687600016593933,0.3734680116176605,0.46086201071739197
1752154090531338800,9.1293388671875,0.6545370221138,0.23417000472545624,0.28151100873947144
1752154090541192200,9.139192138671875,0.5993350148200989,0.37842801213264465,0.5210599899291992
1752154090551045600,9.149045654296875,0.09517800062894821,0.5812489986419678,1.0884970426559448
1752154090560899300,9.1588994140625,1.0819259881973267,0.4397270083427429,0.47475001215934753
1752154090570752800,9.168752685546876,-0.22470299899578094,0.16795900464057922,1.284466028213501
1752154090580606200,9.178606201171876,-0.02775299921631813,0.0011749999830499291,0.5839009881019592
1752154090590459600,9.188459716796874,-0.6601070165634155,-0.29221299290657043,0.7063379883766174
1752154090600313000,9.19831298828125,-0.5497699975967407,-0.5957689881324768,0.06037899851799011
1752154090610166800,9.208166748046875,0.13218000531196594,-0.6713870167732239,-0.7045699954032898
1752154090620020200,9.218020263671875,-0.7415649890899658,-0.6279770135879517,0.34578800201416016
1752154090629873700,9.227873779296875,1.056854009628296,-0.7208589911460876,-0.5575670003890991
1752154090639727400,9.237727294921875,0.7893360257148743,-0.5236979722976685,0.08079099655151367
1752154090649580800,9.247580810546875,0.5747159719467163,-0.23793600499629974,0.7566189765930176
1752154090659434500,9.2574345703125,1.1115809679031372,-0.001259000040590763,0.16225099563598633
1752154090669287700,9.26728759765625,-0.029450999572873116,0.1078760027885437,0.529017984867096
1752154090679141000,9.27714111328125,0.04058900102972984,0.27176201343536377,-0.27285999059677124
1752154090688994600,9.28699462890625,0.032540999352931976,0.439862996339798,-0.590300977230072
1752154090698848300,9.29684814453125,-0.4327400028705597,0.24962100386619568,-0.49957799911499023
1752154090708701700,9.30670166015625,0.5677570104598999,-0.17603699862957,-1.077417016029358
1752154090718555100,9.31655517578125,-0.15518899261951447,-0.5391449928283691,0.44626399874687195
1752154090728408600,9.32640869140625,0.8925899863243103,-0.954355001449585,0.4319950044155121
1752154090738262000,9.336261962890624,0.9487109780311584,-1.1056989431381226,0.6232569813728333
1752154090748115500,9.346115478515625,-0.006953000091016293,-1.1146090030670166,1.3002350330352783
1752154090757969200,9.35596923828125,0.5457140207290649,-1.0155669450759888,0.3414050042629242
1752154090767822600,9.365822509765625,-0.33138298988342285,-0.644012987613678,0.021237999200820923
1752154090777676000,9.375676025390625,-1.33468496799469,-0.01732799969613552,-0.09402599930763245
1752154090787529500,9.385529541015625,-0.7670649886131287,0.3924170136451721,-0.9046940207481384
1752154090797383200,9.395383056640625,-1.4965180158615112,0.7245090007781982,-0.47977501153945923
1752154090807236600,9.405236572265625,-0.7359079718589783,0.59095698595047,-0.5774980187416077
1752154090817090000,9.415090087890626,-0.007271000184118748,0.6261410117149353,-0.2742359936237335
1752154090826943500,9.424943603515626,-0.25685301423072815,0.4185029864311218,0.40163400769233704
1752154090836797200,9.434797119140624,0.7767860293388367,0.2900390028953552,-0.12477400153875351
1752154090846650600,9.444650634765624,0.06596200168132782,0.4498859941959381,0.5001400113105774
1752154090856504000,9.454504150390624,-0.06325999647378922,0.2113880068063736,0.6581010222434998
1752154090866357500,9.464357421875,-0.22168700397014618,0.06503099948167801,0.2072490006685257
1752154090876211000,9.4742109375,-1.6716419458389282,-0.1241379976272583,1.0949070453643799
1752154090886064600,9.484064697265625,-0.36551299691200256,-0.3590799868106842,-0.011245000176131725
1752154090895918000,9.49391796875,0.25206899642944336,-0.6469219923019409,-0.5035979747772217
1752154090905771500,9.503771484375,-0.42662298679351807,-0.9347919821739197,0.6856809854507446
1752154090915625200,9.513625244140625,1.77047598361969,-1.4007680416107178,-0.3258810043334961
1752154090925478400,9.523478515625,1.2077410221099854,-1.2919420003890991,0.3374510109424591
1752154090935331800,9.533331787109375,1.2765640020370483,-1.116711974143982,0.21492600440979004
1752154090945185500,9.543185546875,1.3187509775161743,-0.8394740223884583,-0.02847299911081791
1752154090955039000,9.5530390625,0.3404420018196106,-0.5355830192565918,0.2750760018825531
1752154090964892400,9.562892333984376,-1.1830129623413086,-0.16588300466537476,0.4816040098667145
1752154090974746000,9.57274609375,-0.3775070011615753,0.018609000369906425,-0.2900429964065552
1752154090984599300,9.582599365234374,-1.3313900232315063,-0.016572000458836555,-0.16739800572395325
1752154090994452700,9.59245263671875,-0.47487199306488037,-0.39021599292755127,-1.0646790266036987
1752154091004306400,9.602306396484375,-0.07620500028133392,-0.3169339895248413,-0.7091910243034363
1752154091014160000,9.612159912109375,-0.4050390124320984,-0.43992701172828674,0.12173199653625488
1752154091024013300,9.622013427734375,1.1253299713134766,-0.6536160111427307,-0.24637199938297272
1752154091033867000,9.631866943359375,0.7659339904785156,-0.4761509895324707,0.4782789945602417
1752154091043720400,9.641720458984375,-0.24907700717449188,-0.2997260093688965,1.3055750131607056
1752154091053573600,9.65157373046875,0.1041869968175888,0.09420300275087357,-0.07508300244808197
1752154091063427300,9.66142724609375,-1.9183100461959839,0.6294479966163635,0.9994530081748962
1752154091073280800,9.67128076171875,-1.579355001449585,0.6974890232086182,0.12407699972391129
1752154091083134500,9.681134521484376,-1.0865720510482788,0.7243019938468933,-0.22226500511169434
1752154091092988000,9.69098779296875,-0.8673750162124634,0.7805759906768799,0.07903599739074707
1752154091102841300,9.70084130859375,0.2702159881591797,0.43095698952674866,-0.25509798526763916
1752154091112694800,9.71069482421875,1.3279320001602173,0.15396800637245178,-0.595740020275116
1752154091122548200,9.72054833984375,1.4047410488128662,-0.06858699768781662,0.4843209981918335
1752154091132401700,9.730401611328125,2.571729898452759,-0.37791699171066284,0.3743480145931244
1752154091142255400,9.74025537109375,2.5425100326538086,-0.6434199810028076,0.7054949998855591
1752154091152108800,9.75010888671875,1.42890202999115,-0.8277230262756348,0.7430809736251831
1752154091161962200,9.759962158203125,0.9205610156059265,-0.9438830018043518,0.35043200850486755
1752154091171815700,9.769815673828125,0.3899669945240021,-0.5105410218238831,-0.23008400201797485
1752154091181669400,9.77966943359375,-1.6577249765396118,0.13970600068569183,0.4268040060997009
1752154091191522800,9.789522705078125,-1.8932960033416748,0.5270580053329468,-0.015389000065624714
1752154091201376300,9.799376220703126,-1.712183952331543,0.8334199786186218,-0.3587439954280853
1752154091211229700,9.809229736328126,-1.9128700494766235,0.6795889735221863,0.15722399950027466
1752154091221083100,9.819083251953124,-0.6288729906082153,0.3916969895362854,-0.03382299840450287
1752154091230936600,9.8289365234375,-0.45910701155662537,0.6687650084495544,-0.20889100432395935
1752154091240790300,9.838790283203124,-1.129125952720642,0.7594010233879089,0.4426110088825226
1752154091250643700,9.848643798828125,-0.4863409996032715,0.6247929930686951,0.13699400424957275
1752154091260497200,9.8584970703125,-0.3626730144023895,0.53889399766922,0.21786600351333618
1752154091270350600,9.8683505859375,-1.3659720420837402,0.06938300281763077,0.7993130087852478
1752154091280204300,9.878204345703125,0.23081499338150024,-0.4334299862384796,-0.6695219874382019
1752154091290057700,9.8880576171875,0.11108600348234177,-0.5244669914245605,-0.9561470150947571
1752154091299911200,9.8979111328125,-0.5300359725952148,-0.4628709852695465,0.29819101095199585
1752154091309764900,9.907764892578125,1.3043830394744873,-0.4833190143108368,-0.4343549907207489
1752154091319618300,9.917618408203126,1.1486860513687134,-0.3319230079650879,0.3072989881038666
1752154091329471500,9.927471435546876,1.2289179563522339,-0.4713059961795807,0.8198739886283875
1752154091339325200,9.9373251953125,2.1649069786071777,-0.7444450259208679,0.4870780110359192
1752154091349178600,9.9471787109375,1.787248969078064,-0.7818959951400757,0.6261870265007019
1752154091359032300,9.9570322265625,1.1608660221099854,-1.0892980098724365,0.9183520078659058
1752154091368885800,9.9668857421875,1.2110099792480469,-1.7352869510650635,0.1360439956188202
1752154091378739200,9.9767392578125,0.3458249866962433,-1.6462160348892212,-0.29277899861335754
1752154091388592600,9.986592529296875,-1.9751800298690796,-1.2068129777908325,0.7751910090446472
1752154091398446300,9.9964462890625,-1.999184012413025,-0.7555029988288879,0.03312600031495094
1752154091408299500,10.006299560546875,-2.051788091659546,-0.051823001354932785,0.17547999322414398
1752154091418153200,10.0161533203125,-2.8567099571228027,0.22410200536251068,0.8773220181465149
1752154091428006700,10.026006591796875,-2.2985620498657227,0.13620300590991974,0.43899300694465637
1752154091437860400,10.0358603515625,-1.6064519882202148,0.20138700306415558,-0.38885700702667236
1752154091447713800,10.0457138671875,-1.4846919775009155,0.16769899427890778,-0.8492199778556824
1752154091457567000,10.05556689453125,-0.340148001909256,0.07791700214147568,-1.781440019607544
1752154091467420400,10.06542041015625,1.7386369705200195,-0.16583600640296936,-2.7148380279541016
1752154091477274000,10.075274169921874,1.6628479957580566,-0.5727270245552063,-1.90346097946167
1752154091487127600,10.08512744140625,0.8623700141906738,-0.8502169847488403,-0.3870609998703003
1752154091496981200,10.094981201171874,0.8189799785614014,-0.6427050232887268,0.30260300636291504
1752154091506834700,10.104834716796875,0.05297999829053879,-0.06336899846792221,1.3643319606781006
1752154091516688100,10.114688232421875,0.814786970615387,-0.10651200264692307,1.110856056213379
1752154091526541600,10.12454150390625,2.228050947189331,-0.81107097864151,-0.4258880019187927
1752154091536395300,10.134395263671875,2.5985500812530518,-1.127748966217041,-0.8127020001411438
1752154091546248400,10.14424853515625,0.7537720203399658,-0.9891870021820068,0.2442370057106018
1752154091556102100,10.15410205078125,1.2940820455551147,-0.21625299751758575,-0.696382999420166
1752154091565955600,10.16395556640625,1.129757046699524,0.11262500286102295,0.07565800100564957
1752154091575809000,10.17380908203125,-1.202252984046936,0.14042499661445618,1.9662679433822632
1752154091585662700,10.183662841796876,-1.9101229906082153,0.00279300007969141,1.0168019533157349
1752154091595516200,10.19351611328125,0.4538640081882477,-0.27261701226234436,-0.9406179785728455
1752154091605369600,10.20336962890625,1.1594810485839844,-0.6797009706497192,-0.6302109956741333
1752154091615223300,10.213223388671874,1.2226979732513428,-1.3571840524673462,0.2194029986858368
1752154091625076500,10.223076416015624,2.4950621128082275,-0.8418369889259338,-1.3168840408325195
1752154091634930200,10.23293017578125,0.7202529907226562,-0.04368700087070465,0.5219230055809021
1752154091644783600,10.24278369140625,-1.3181780576705933,0.21080900728702545,1.8662420511245728
1752154091654637000,10.252636962890625,-0.9341400265693665,0.6214730143547058,0.036465998739004135
1752154091664490800,10.26249072265625,-2.245965003967285,1.1191060543060303,0.5360299944877625
1752154091674344200,10.27234423828125,-2.6209869384765625,0.6073219776153564,0.44898998737335205
1752154091684197600,10.28219775390625,-0.7907519936561584,-0.49276798963546753,-1.3085620403289795
1752154091694051300,10.29205126953125,0.22608999907970428,-0.4670650064945221,-2.1428120136260986
1752154091703904500,10.301904541015626,0.6285679936408997,-0.13150300085544586,-1.0585960149765015
1752154091713758200,10.31175830078125,1.6151249408721924,-0.08779200166463852,-0.6067249774932861
1752154091723611600,10.321611572265626,2.1385130882263184,0.39708998799324036,-0.17931100726127625
1752154091733465000,10.331465087890624,0.7461609840393066,0.7061600089073181,0.951242983341217
1752154091743318800,10.34131884765625,-0.07952400296926498,1.090914011001587,0.7478790283203125
1752154091753172200,10.351172119140625,0.7198539972305298,0.30094701051712036,-0.6996099948883057
1752154091763025400,10.361025390625,0.9886109828948975,-0.827593982219696,-1.6937110424041748
1752154091772879000,10.370879150390625,0.34682199358940125,-1.3413599729537964,-2.1384670734405518
1752154091782732500,10.380732666015625,0.3736650049686432,-0.7285730242729187,-2.8404829502105713
1752154091792586000,10.3905859375,0.5779520273208618,-0.2361219972372055,-2.114464044570923
1752154091802439700,10.400439697265625,-1.212110996246338,-0.07017699629068375,1.0355700254440308
1752154091812293000,10.410293212890625,-1.9873180389404297,-0.057447001338005066,2.5403358936309814
1752154091822146600,10.420146484375,-2.343066930770874,0.49187201261520386,2.0051510334014893
1752154091832000300,10.430000244140626,-2.166827917098999,0.365090012550354,1.4206390380859375
1752154091841853400,10.439853515625,-1.8106969594955444,0.14875799417495728,0.5034629702568054
1752154091851707000,10.449706787109376,0.3789379894733429,-0.4527420103549957,-2.4359490871429443
1752154091861560800,10.459560791015624,-0.3103390038013458,0.09922599792480469,-3.214371919631958
1752154091871414000,10.4694140625,-1.1481640338897705,0.1889829933643341,-1.8414989709854126
1752154091881267700,10.479267822265625,0.4395489990711212,0.13190600275993347,-1.1943340301513672
1752154091891121200,10.48912109375,0.9940770268440247,-0.08607099950313568,0.4883840084075928
1752154091900974600,10.498974609375,-0.21342499554157257,-0.3023340106010437,1.9074740409851074
1752154091910828000,10.508828125,0.497514009475708,-0.8693280220031738,1.4260530471801758
1752154091920681700,10.518681640625,2.425704002380371,-1.5516860485076904,-0.5734850168228149
1752154091930535000,10.528534912109375,2.111377000808716,-1.688025951385498,-1.5796079635620117
1752154091940388600,10.538388671875,0.3029100000858307,-1.246588945388794,-0.8954799771308899
1752154091950242000,10.548241943359375,-1.1352790594100952,-0.012550000101327896,-0.7895179986953735
1752154091960095500,10.558095458984376,-1.2090660333633423,0.6157699823379517,-0.651419997215271
1752154091969949000,10.567948974609376,-2.3849270343780518,0.7543179988861084,1.2917629480361938
1752154091979802600,10.577802734375,-2.6767361164093018,0.4899370074272156,1.5889569520950317
1752154091989656300,10.58765625,-0.8679280281066895,0.11118999868631363,-0.5842199921607971
1752154091999509800,10.597509765625,-0.20135800540447235,0.032526999711990356,-0.5709869861602783
1752154092009363200,10.60736328125,-0.6873559951782227,0.1317169964313507,0.0041160001419484615
1752154092019216600,10.617216552734375,-0.04150199890136719,0.0939830020070076,-0.8350899815559387
1752154092029070000,10.627070068359375,0.42928001284599304,0.3028930127620697,-1.3744800090789795
1752154092038923500,10.636923583984375,0.31530600786209106,0.24599100649356842,-0.6480249762535095
1752154092048777000,10.64677685546875,0.5967720150947571,-0.20110900700092316,0.08637300133705139
1752154092058630700,10.656630615234375,1.5607140064239502,-0.7075009942054749,-0.24482500553131104
1752154092068484000,10.666484130859375,2.1419150829315186,-0.6918389797210693,-0.10673599690198898
1752154092078337500,10.676337646484376,1.523697018623352,-0.4954969882965088,0.6939319968223572
1752154092088191000,10.68619091796875,0.70865797996521,-0.01854499988257885,0.8789349794387817
1752154092098044400,10.69604443359375,1.157668948173523,0.6739220023155212,-0.786728024482727
1752154092107898000,10.705898193359374,-0.5677980184555054,1.2557289600372314,0.2425220012664795
1752154092117751600,10.71575146484375,-1.9823830127716064,1.1831170320510864,1.2087329626083374
1752154092127605000,10.72560498046875,-1.5680880546569824,1.0789730548858643,0.14636999368667603
1752154092137458400,10.73545849609375,-0.5286970138549805,0.6615779995918274,-0.4714910089969635
1752154092147312000,10.74531201171875,-0.46417000889778137,0.359142005443573,-0.3218019902706146
1752154092157165600,10.75516552734375,-0.5269439816474915,-0.11223000288009644,0.25102499127388
1752154092167019000,10.76501904296875,0.07588399946689606,-0.11752899736166,-0.22429299354553223
1752154092176872400,10.77487255859375,1.5399529933929443,-0.478877991437912,-0.9868350028991699
1752154092186726100,10.78472607421875,1.3156640529632568,-0.6877269744873047,-0.6082260012626648
1752154092196579600,10.79457958984375,0.4987030029296875,-0.8925449848175049,-0.0088919997215271
1752154092206433000,10.80443310546875,0.9445090293884277,-0.1922380030155182,-0.9798579812049866
1752154092216286700,10.81428662109375,0.7764139771461487,0.8269879817962646,-0.9400830268859863
1752154092226140200,10.82414013671875,-0.4305169880390167,1.2310210466384888,0.3897610008716583
1752154092235993600,10.83399365234375,0.09862300008535385,0.7029420137405396,0.038391999900341034
1752154092245847000,10.843846923828124,-0.04029199853539467,0.40386098623275757,-0.22055000066757202
1752154092255700700,10.85370068359375,0.6211640238761902,-0.02999499998986721,-0.07265900075435638
1752154092265554000,10.863553955078125,0.12466699630022049,-0.899482011795044,0.6264730095863342
1752154092275407600,10.87340771484375,0.32525599002838135,-1.4248290061950684,0.45276400446891785
1752154092285261000,10.883260986328125,0.37865400314331055,-1.2533899545669556,-0.34864598512649536
1752154092295114500,10.893114501953125,-1.0202540159225464,-0.5180780291557312,-0.45147499442100525
1752154092304968200,10.90296826171875,-2.392760992050171,-0.2176869958639145,0.7620279788970947
1752154092314821600,10.912821533203125,-2.027277946472168,-0.3819560110569,-0.09572000056505203
1752154092324675300,10.92267529296875,-0.584667980670929,-0.3812189996242523,-1.408182978630066
1752154092334528800,10.93252880859375,0.13152599334716797,-0.4189560115337372,-1.2262530326843262
1752154092344382200,10.94238232421875,0.3621540069580078,-0.3156610131263733,-1.3166810274124146
1752154092354235600,10.952235595703126,0.7246090173721313,0.00012799999967683107,-1.592358946800232
1752154092364089000,10.962089111328124,0.8623250126838684,0.18333899974822998,-0.9559339880943298
1752154092373942800,10.97194287109375,-0.06780000030994415,0.5449240207672119,-0.10476700216531754
1752154092383796200,10.981796142578125,-1.1233370304107666,0.014436000026762486,0.32885101437568665
1752154092393649700,10.991649658203125,-0.22517600655555725,-0.9361749887466431,-0.5574970245361328
1752154092403503400,11.00150341796875,0.7948750257492065,-1.2520580291748047,-1.7652519941329956
1752154092413356800,11.011356689453125,0.6028100252151489,-1.1992779970169067,-1.630748987197876
1752154092423210000,11.0212099609375,-0.38763299584388733,-0.6206870079040527,0.008441999554634094
1752154092433063700,11.031063720703125,-0.1515350043773651,0.2862569987773895,0.4732530117034912
1752154092442917000,11.040917236328125,0.6368359923362732,1.0883289575576782,0.30577999353408813
1752154092452770800,11.050770751953126,0.09682700037956238,1.0534230470657349,1.0226600170135498
1752154092462624300,11.060624267578126,-0.8957970142364502,0.577862024307251,1.1349250078201294
1752154092472477700,11.070477783203126,0.6561509966850281,-0.26737499237060547,-0.49525800347328186
1752154092482331100,11.0803310546875,1.084136962890625,-0.3294549882411957,-1.5325210094451904
1752154092492184800,11.090184814453124,0.8565549850463867,-0.16493800282478333,-0.8309419751167297
1752154092502038300,11.100038330078124,-0.3961769938468933,0.09787300229072571,0.4424639940261841
1752154092511891700,11.1098916015625,-1.0442179441452026,0.517723023891449,1.381080985069275
1752154092521745400,11.119745361328125,0.09149300307035446,0.157259002327919,0.8142430186271667
1752154092531598600,11.1295986328125,1.4734209775924683,-0.2575240135192871,-0.05240099877119064
1752154092541452300,11.139452392578125,1.5149420499801636,-0.712378978729248,0.4965740144252777
1752154092551305700,11.1493056640625,1.7049829959869385,-0.8618639707565308,-0.12089300155639648
1752154092561159200,11.1591591796875,2.3293049335479736,-0.29867100715637207,-0.6715750098228455
1752154092571012900,11.169012939453125,2.194972038269043,0.20214299857616425,-0.5080620050430298
1752154092580866300,11.1788662109375,0.22486400604248047,0.4665620028972626,0.8062329888343811
1752154092590719700,11.1887197265625,-1.0268419981002808,-0.1948380023241043,1.0152419805526733
1752154092600573400,11.198573486328126,-1.0367200374603271,-1.0140529870986938,0.25021201372146606
1752154092610427000,11.208427001953124,-0.19626200199127197,-1.0448119640350342,-0.7704780101776123
1752154092620280300,11.2182802734375,-0.8288000226020813,-1.0583720207214355,-0.6441969871520996
1752154092630133800,11.2281337890625,-1.147825002670288,-0.7523229718208313,-0.5686489939689636
1752154092639987200,11.2379873046875,-1.7658400535583496,-0.16956199705600739,-0.5671290159225464
1752154092649841000,11.2478408203125,-1.7128859758377075,0.4744490087032318,-0.7031210064888
1752154092659694300,11.2576943359375,-1.6118370294570923,0.7858909964561462,-0.29552099108695984
1752154092669547800,11.2675478515625,-1.137910008430481,0.6226459741592407,-0.23562300205230713
1752154092679401500,11.2774013671875,-0.0018530000234022737,0.4933130145072937,-0.7212120294570923
1752154092689255000,11.2872548828125,1.5824589729309082,-0.31950798630714417,-2.014570951461792
1752154092699108400,11.2971083984375,2.1818668842315674,-0.26628100872039795,-2.1986539363861084
1752154092708961800,11.3069619140625,1.513363003730774,-0.11434700340032578,-0.8566399812698364
1752154092718815200,11.316815185546876,0.08812399953603745,0.35072800517082214,0.4543069899082184
1752154092728668700,11.326668701171876,0.9390109777450562,0.41888898611068726,1.1673489809036255
1752154092738522400,11.3365224609375,1.762745976448059,-0.0675560012459755,0.8868209719657898
1752154092748375800,11.346375732421874,1.8461250066757202,-0.7716699838638306,0.9628679752349854
1752154092758229200,11.356229248046875,1.6500970125198364,-1.8527460098266602,1.1494749784469604
1752154092768083000,11.3660830078125,0.7231699824333191,-1.852936029434204,0.9707080125808716
1752154092777936400,11.375936279296875,1.5033249855041504,-1.7827320098876953,1.2518199682235718
1752154092787790000,11.3857900390625,0.8673080205917358,-1.6620359420776367,1.4380569458007812
1752154092797643500,11.3956435546875,-0.9119499921798706,-1.7033369541168213,2.330327033996582
1752154092807497000,11.4054970703125,-0.5020049810409546,-2.1783459186553955,2.0370569229125977
1752154092817350400,11.415350341796875,-0.054228998720645905,-2.2614200115203857,0.819346010684967
1752154092827203800,11.425203857421875,0.3028849959373474,-2.162156105041504,-0.029299000278115273
1752154092837057500,11.4350576171875,-0.024289000779390335,-1.8539279699325562,-0.8734449744224548
1752154092846911000,11.444910888671876,-0.37184301018714905,-1.3422600030899048,-1.5011769533157349
1752154092856764400,11.454764404296874,0.03209200128912926,-0.5666890144348145,-2.5275580883026123
1752154092866618000,11.4646181640625,-0.7274129986763,0.6789060235023499,-2.504944086074829
1752154092876471600,11.474471435546874,-1.925091028213501,1.709130048751831,-1.6075979471206665
1752154092886325000,11.484324951171875,-1.1880710124969482,1.6796619892120361,-1.6052320003509521
1752154092896178400,11.494178466796875,-0.5574120283126831,1.0151870250701904,-2.0894439220428467
1752154092906031900,11.504031982421875,-0.9074440002441406,0.6069980263710022,-2.007978916168213
1752154092915885600,11.513885498046875,-2.40395188331604,0.42115700244903564,-1.0536119937896729
1752154092925739000,11.523739013671875,-3.051276922225952,0.2317419946193695,-1.225540041923523
1752154092935592400,11.533592529296875,-3.1148829460144043,0.4761259853839874,-0.984574019908905
1752154092945446000,11.54344580078125,-3.587599992752075,0.6823049783706665,0.06496399641036987
1752154092955299600,11.553299560546876,-4.35157585144043,0.22818399965763092,0.34589898586273193
1752154092965153000,11.563153076171876,-3.1214990615844727,-0.14179100096225739,-1.5236719846725464
1752154092975006700,11.5730068359375,-2.722529888153076,0.1592639982700348,-2.6778969764709473
1752154092984860000,11.58285986328125,-4.5483198165893555,0.8113729953765869,-1.7243789434432983
1752154092994713300,11.59271337890625,-3.6539790630340576,1.3312820196151733,-2.892775058746338
1752154093004567000,11.602567138671875,-3.247757911682129,1.820613980293274,-2.467772960662842
1752154093014420500,11.61242041015625,-3.2692079544067383,1.7999019622802734,-1.2382639646530151
1752154093024274200,11.622274169921875,-1.7121880054473877,1.1382299661636353,-1.189911961555481
1752154093034127600,11.632127685546875,0.19105400145053864,-0.013585000298917294,-0.8531140089035034
1752154093043981000,11.64198095703125,0.033913999795913696,-2.780143976211548,0.9685660004615784
1752154093053834500,11.65183447265625,0.14609399437904358,-3.822287082672119,1.1471270322799683
1752154093063688200,11.661688232421875,1.1137020587921143,-3.249958038330078,0.8237670063972473
1752154093073541400,11.671541259765625,-0.6374840140342712,-3.0922889709472656,2.0340240001678467
1752154093083395000,11.68139501953125,1.1640169620513916,-2.826535940170288,1.5965889692306519
1752154093093248500,11.69124853515625,5.304494857788086,-3.117506980895996,0.7330470085144043
1752154093103102200,11.701102294921874,6.045629024505615,-6.326839923858643,2.520785093307495
1752154093112955600,11.71095556640625,6.6869611740112305,-7.544830799102783,1.3368560075759888
1752154093122809000,11.72080908203125,6.729679107666016,-7.372209072113037,-0.16792899370193481
1752154093132662500,11.73066259765625,5.752062797546387,-6.744087219238281,0.8642020225524902
1752154093142516200,11.74051611328125,4.359920024871826,-5.496657848358154,0.5541309714317322
1752154093152369700,11.75036962890625,3.218796968460083,-3.7901880741119385,0.858322024345398
1752154093162223400,11.760223388671875,2.303400993347168,-2.755279064178467,1.3587729930877686
1752154093172076500,11.77007666015625,2.2324860095977783,-2.0904219150543213,0.596123993396759
1752154093181930000,11.779929931640625,0.16711600124835968,-1.526075005531311,1.059736967086792
1752154093191783700,11.78978369140625,-1.5156890153884888,-0.5315319895744324,-0.20540499687194824
1752154093201637000,11.79963720703125,-2.409723997116089,0.3931550085544586,-0.6617529988288879
1752154093211490800,11.80949072265625,-3.442272901535034,0.8351100087165833,-0.15790200233459473
1752154093221344300,11.81934423828125,-2.742727041244507,1.2131710052490234,-1.7010259628295898
1752154093231197700,11.82919775390625,-2.733414888381958,1.7878979444503784,-2.373594045639038
1752154093241051100,11.839051025390624,-3.8898708820343018,2.951425075531006,-2.089319944381714
1752154093250904800,11.84890478515625,-2.916110038757324,3.7915849685668945,-2.7538559436798096
1752154093260758300,11.85875830078125,-3.1788859367370605,3.5650908946990967,-1.341892957687378
1752154093270611700,11.86861181640625,-3.4681661128997803,2.643078088760376,-1.1784820556640625
1752154093280465200,11.878465087890625,-3.568711042404175,1.8679399490356445,-0.9751480221748352
1752154093290318600,11.888318603515625,-4.282668113708496,1.1399099826812744,-0.7554699778556824
1752154093300172300,11.89817236328125,-2.852950096130371,0.40844398736953735,-1.907876968383789
1752154093310025700,11.908025634765625,-2.4268810749053955,0.024684999138116837,-2.2972960472106934
1752154093319879200,11.917879150390625,-1.5646439790725708,0.033284999430179596,-2.336616039276123
1752154093329732900,11.92773291015625,0.6547229886054993,0.27316200733184814,-2.353782892227173
1752154093339586300,11.93758642578125,2.1703450679779053,0.3569389879703522,-1.4769359827041626
1752154093349439700,11.947439697265626,4.243774890899658,-0.5582190155982971,-1.1806939840316772
1752154093359293200,11.957293212890624,5.023510932922363,-1.1244159936904907,-0.6629610061645508
1752154093369146600,11.967146728515624,4.07725715637207,-1.003383994102478,0.11075600236654282
1752154093379000300,11.977000244140624,2.7861781120300293,-0.7282429933547974,0.29363399744033813
1752154093388853800,11.986853759765625,0.4629499912261963,-0.9205470085144043,1.6883660554885864
1752154093398707200,11.996707275390625,0.21100300550460815,-1.4548640251159668,1.595188021659851
1752154093408561000,12.006560791015625,-0.9032459855079651,-1.5965349674224854,2.51332688331604
1752154093418414300,12.016414306640625,-0.6758990287780762,-1.490317940711975,2.432391881942749
1752154093428267800,12.026267822265625,-0.5277040004730225,-1.1039650440216064,2.745357036590576
1752154093438121200,12.036121337890625,-0.6965330243110657,-0.18250499665737152,2.270113945007324
1752154093447975000,12.045974853515625,-1.0477139949798584,0.9078369736671448,1.981592059135437
1752154093457828400,12.055828369140626,-1.1714099645614624,1.8826930522918701,1.4012930393218994
1752154093467682000,12.06568212890625,-1.0223779678344727,2.377185106277466,0.4217279851436615
1752154093477535500,12.075535400390624,-0.7218689918518066,3.093919038772583,-0.7686709761619568
1752154093487389000,12.085388916015624,-1.1630829572677612,3.6940300464630127,-1.145617961883545
1752154093497242400,12.095242431640624,-0.3582560122013092,3.4612889289855957,-1.3546379804611206
1752154093507095800,12.105095703125,-0.08883500099182129,2.3527159690856934,-1.1736609935760498
1752154093516949200,12.11494921875,-0.14792400598526,0.9834870100021362,-0.6340559720993042
1752154093526803000,12.124802978515625,-0.5476779937744141,0.1561720073223114,-0.24404700100421906
1752154093536656400,12.134656494140625,-1.7189029455184937,-0.34926900267601013,0.7093619704246521
1752154093546510000,12.144510009765625,-1.5936980247497559,-1.0483909845352173,0.5769029855728149
1752154093556363500,12.154363525390625,-1.5384349822998047,-1.5744359493255615,0.5517230033874512
1752154093566217000,12.164217041015625,-0.5263180136680603,-1.476269006729126,0.14054200053215027
1752154093576070400,12.1740703125,-0.6324319839477539,-0.9430729746818542,0.33786699175834656
1752154093585923800,12.183923828125,-0.35089999437332153,-0.12288500368595123,0.053881000727415085
1752154093595777300,12.19377734375,0.4384259879589081,0.3739970028400421,0.3099460005760193
1752154093605631000,12.203630859375,1.482619047164917,0.35312700271606445,-0.0021929999347776175
1752154093615484400,12.213484375,1.7568310499191284,0.08652299642562866,-0.08095300197601318
1752154093625337900,12.223337890625,2.020071029663086,-0.39336100220680237,-0.5328919887542725
1752154093635191600,12.233191650390625,1.7491559982299805,-0.7558079957962036,-1.06039297580719
1752154093645045000,12.243044921875,1.011167049407959,-1.1743849515914917,-0.6110000014305115
1752154093654898700,12.252898681640625,0.4353969991207123,-1.1557259559631348,-0.441895991563797
1752154093664752000,12.262752197265625,-0.6215850114822388,-0.9637380242347717,0.17374099791049957
1752154093674605300,12.272605224609375,-0.3224410116672516,-0.9059789776802063,-0.29407998919487
1752154093684459000,12.282458984375,0.05733000114560127,-0.9525120258331299,-0.20923499763011932
1752154093694312400,12.2923125,0.7894880175590515,-0.754813015460968,-0.5371119976043701
1752154093704166100,12.302166259765626,1.684453010559082,-0.6400309801101685,-0.6021749973297119
1752154093714019600,12.31201953125,2.5960988998413086,-0.5063199996948242,-1.2565100193023682
1752154093723873000,12.321873046875,1.7446069717407227,-0.32038000226020813,-0.24327699840068817
1752154093733726500,12.3317265625,0.6846799850463867,-0.2514300048351288,0.2956030070781708
1752154093743580200,12.341580078125,-0.30664199590682983,-0.17757299542427063,0.026128999888896942
1752154093753433600,12.35143359375,-0.060802001506090164,-0.5242419838905334,-0.46154698729515076
1752154093763287000,12.361287109375,0.10915400087833405,-1.075003981590271,-0.3594839870929718
1752154093773140500,12.371140380859375,0.3493579924106598,-1.2951220273971558,-0.6521689891815186
1752154093782994200,12.380994140625,0.3803670108318329,-0.9942799806594849,-0.21244500577449799
1752154093792847600,12.39084765625,0.3058890104293823,-0.7549660205841064,0.7886009812355042
1752154093802701000,12.400701171875,0.4648120105266571,-0.33620399236679077,0.7636430263519287
1752154093812554500,12.410554443359375,0.10583800077438354,0.22200199961662292,0.6962649822235107
1752154093822408200,12.420408203125,-0.035440001636743546,0.3172700107097626,-0.9033430218696594
1752154093832261600,12.43026171875,-0.8327829837799072,0.5059509873390198,-1.1448630094528198
1752154093842115000,12.440114990234376,-0.7995409965515137,0.6014620065689087,-1.6296780109405518
1752154093851968500,12.449968505859376,-0.3430060148239136,0.5164459943771362,-1.066336989402771
1752154093861822200,12.459822265625,0.4163550138473511,0.4670250117778778,-0.7836059927940369
1752154093871675600,12.469675537109374,0.4255560040473938,0.4444209933280945,0.8116210103034973
1752154093881529000,12.479529052734375,0.9494860172271729,0.08739899843931198,1.4552149772644043
1752154093891382800,12.4893828125,1.0845550298690796,-0.31008198857307434,0.9355670213699341
1752154093901236200,12.499236328125,1.0996249914169312,-0.2230439931154251,0.2924549877643585
1752154093911089700,12.509089599609375,0.819491982460022,-0.2278899997472763,-0.2396239936351776
1752154093920943400,12.518943359375,0.15273000299930573,0.3271630108356476,-0.26686400175094604
1752154093930796800,12.528796875,-0.1462160050868988,0.8507940173149109,-0.5873780250549316
1752154093940650000,12.53864990234375,-1.4472589492797852,0.8294150233268738,1.1179720163345337
1752154093950503700,12.548503662109376,-1.2642600536346436,0.48066699504852295,1.3706729412078857
1752154093960357000,12.558357177734376,-1.5171469449996948,0.12416300177574158,1.474058985710144
1752154093970210600,12.56821044921875,-0.8712739944458008,-0.2579439878463745,1.0522710084915161
1752154093980064300,12.578064208984374,-0.624970018863678,-0.8260239958763123,0.15065599977970123
1752154093989917700,12.587917724609374,-0.88754802942276,-0.9668329954147339,-0.9528560042381287
1752154093999771400,12.597771484375,-1.7040079832077026,-0.4508810043334961,-1.3595860004425049
