time,seconds_elapsed,z,y,x
1752154081451419100,0.049419189453125,0.12155000120401382,-2.4327874183654785,0.004674999974668026
1752154081461272300,0.059272216796875,0.34718748927116394,-2.399787425994873,0.06104999780654907
1752154081471125800,0.069125732421875,0.6516125202178955,-2.2017874717712402,0.07493750005960464
1752154081480979000,0.07897900390625,0.9718499779701233,-1.7558749914169312,0.030249999836087227
1752154081490832400,0.088832275390625,1.223062515258789,-0.9354124665260315,-0.0752125009894371
1752154081500685600,0.098685546875,1.448699951171875,-0.02983750030398369,-0.1825999915599823
1752154081510539000,0.1085390625,1.634874939918518,0.7236624956130981,-0.20074999332427979
1752154081520392400,0.118392333984375,1.7881875038146973,1.4579124450683594,-0.12732499837875366
1752154081530245600,0.12824560546875,1.8807250261306763,2.399787425994873,-0.01347499992698431
1752154081540099000,0.13809912109375,1.9222500324249268,3.3416624069213867,0.10037499666213989
1752154081549952300,0.1479521484375,1.9381999969482422,4.018437385559082,0.18878750503063202
1752154081559805700,0.1578056640625,1.96693754196167,4.261125087738037,0.2451625019311905
1752154081569659000,0.167658935546875,1.9977375268936157,3.8257999420166016,0.30373749136924744
1752154081579512000,0.177511962890625,2.0030999183654785,2.813800096511841,0.39627498388290405
1752154081589365500,0.187365478515625,1.985087513923645,1.7527124881744385,0.44206249713897705
1752154081599219000,0.197218994140625,1.9083625078201294,0.8460375070571899,0.38142499327659607
1752154081609072000,0.207072021484375,1.7711374759674072,-0.06063750013709068,0.10683749616146088
1752154081618925600,0.216925537109375,1.5710749626159668,-0.6949250102043152,-0.37207499146461487
1752154081628778800,0.22677880859375,1.308174967765808,-0.7321875095367432,-0.9350000023841858
1752154081638632000,0.2366318359375,0.9772124886512756,-0.45649999380111694,-1.3947999477386475
1752154081648485400,0.2464853515625,0.6643999814987183,-0.21285000443458557,-1.6512374877929688
1752154081658338800,0.2563388671875,0.35887500643730164,0.33096250891685486,-1.7576625347137451
1752154081668192000,0.26619189453125,-0.05087500065565109,1.0791000127792358,-1.7300249338150024
1752154081678045200,0.276045166015625,-0.5850625038146973,1.6857500076293945,-1.5746500492095947
1752154081687898600,0.285898681640625,-1.0554499626159668,1.7740249633789062,-1.3415875434875488
1752154081697751800,0.295751708984375,-1.3343000411987305,1.1621500253677368,-0.9882124662399292
1752154081707605200,0.305605224609375,-1.610949993133545,0.9333499670028687,-0.5700749754905701
1752154081717458700,0.315458740234375,-1.8918625116348267,1.2578500509262085,-0.44343748688697815
1752154081727312000,0.325311767578125,-1.899287462234497,1.7964375019073486,-0.6424000263214111
1752154081737165000,0.3351650390625,-1.6183749437332153,1.5239125490188599,-0.7605124711990356
1752154081747018800,0.345018798828125,-1.0522874593734741,0.594962477684021,-0.7807250022888184
1752154081756872000,0.354871826171875,-0.30841249227523804,0.12127500027418137,-0.7136250138282776
1752154081766725000,0.36472509765625,0.38871249556541443,0.4310624897480011,-0.5784624814987183
1752154081776578600,0.37457861328125,0.8207374811172485,0.8439750075340271,-0.4188250005245209
1752154081786431700,0.384431640625,0.991100013256073,1.3334749937057495,-0.2677125036716461
1752154081796285200,0.39428515625,1.0187374353408813,1.6835500001907349,-0.1825999915599823
1752154081806138400,0.404138427734375,0.983537495136261,1.8006999492645264,-0.19222499430179596
1752154081815991800,0.41399169921875,0.899524986743927,1.5324374437332153,-0.28806251287460327
1752154081825845000,0.423844970703125,0.3759250044822693,0.45649999380111694,-0.56045001745224
1752154081835698400,0.433698486328125,-0.1093124970793724,0.025575000792741776,-0.5497249960899353
1752154081845551600,0.443551513671875,-0.644599974155426,0.0170499999076128,-0.431612491607666
1752154081855405000,0.453405029296875,-0.9820249676704407,0.04358749836683273,-0.2283875048160553
1752154081865258500,0.463258544921875,-1.1044000387191772,0.1915374994277954,0.015262499451637268
1752154081875111700,0.473111572265625,-1.193774938583374,0.5384500026702881,0.317487508058548
1752154081884965000,0.482965087890625,-1.1969374418258667,0.7407125234603882,0.7411249876022339
1752154081894818600,0.492818603515625,-0.9394000172615051,0.7290250062942505,1.1913000345230103
1752154081904671700,0.502671630859375,-0.4945875108242035,0.6928625106811523,1.529687523841858
1752154081914525200,0.512525146484375,-0.1326874941587448,0.7268249988555908,1.6946874856948853
1752154081924378400,0.52237841796875,0.006599999964237213,0.6949250102043152,1.6913875341415405
1752154081934231600,0.5322314453125,0.027912499383091927,0.7523999810218811,1.5467374324798584
1752154081944085000,0.5420849609375,0.040699999779462814,0.7545999884605408,1.2955249547958374
1752154081953938400,0.5519384765625,0.042899999767541885,0.632224977016449,0.9912375211715698
1752154081963791600,0.56179150390625,0.07259999960660934,0.4927999973297119,0.6687999963760376
1752154081973644800,0.571644775390625,0.15991249680519104,0.38733750581741333,0.3686375021934509
1752154081983498500,0.58149853515625,0.30566251277923584,0.27252501249313354,0.14093749225139618
1752154081993351700,0.5913515625,0.44302499294281006,0.23196250200271606,0.0004124999977648258
1752154082003204900,0.601204833984375,0.5302000045776367,0.17242500185966492,-0.04001250118017197
1752154082013058300,0.611058349609375,0.5706250071525574,0.08195000141859055,-0.020899999886751175
1752154082022911700,0.620911865234375,0.5526124835014343,0.021312499418854713,0.01209999993443489
1752154082032765000,0.630764892578125,0.49720001220703125,0.07136250287294388,0.055687498301267624
1752154082042618400,0.640618408203125,0.42803749442100525,0.12553749978542328,0.10999999940395355
1752154082052471600,0.650471435546875,0.36959999799728394,0.19483749568462372,0.18658749759197235
1752154082062325000,0.660324951171875,0.35887500643730164,0.2437874972820282,0.28132501244544983
1752154082072178200,0.67017822265625,0.30566251277923584,0.17668749392032623,0.2952125072479248
1752154082082031600,0.680031494140625,0.16197499632835388,0.21504999697208405,0.1993750035762787
1752154082091884800,0.689884765625,0.04179999977350235,0.1979999989271164,0.059950001537799835
1752154082101738200,0.69973828125,-0.01251249946653843,0.11811249703168869,-0.08579999953508377
1752154082111591700,0.709591796875,-0.04124999791383743,-0.002062499988824129,-0.21353749930858612
1752154082121444900,0.71944482421875,-0.0635249987244606,-0.08717499673366547,-0.2699125111103058
1752154082131298000,0.729298095703125,-0.09129999577999115,-0.1266375035047531,-0.21779999136924744
1752154082141151500,0.7391513671875,-0.12209999561309814,-0.05101250112056732,-0.05389999970793724
1752154082151005000,0.7490048828125,-0.11247500032186508,0.08084999769926071,0.1611499935388565
1752154082160858000,0.758858154296875,-0.0859375,0.28737500309944153,0.36217498779296875
1752154082170711600,0.768711669921875,-0.1050499975681305,0.4512749910354614,0.5495874881744385
1752154082180564700,0.778564697265625,-0.24131250381469727,0.47891250252723694,0.6676999926567078
1752154082190418200,0.788418212890625,-0.35942500829696655,0.3469125032424927,0.6995999813079834
1752154082200271600,0.798271728515625,-0.3955875039100647,0.1331000030040741,0.5698000192642212
1752154082210124800,0.808124755859375,-0.4105750024318695,-0.06063750013709068,0.3973749876022339
1752154082219978000,0.81797802734375,-0.3073124885559082,-0.15111249685287476,0.23553749918937683
1752154082229831700,0.827831787109375,-0.1816374957561493,-0.1798499971628189,0.13763749599456787
1752154082239685000,0.83768505859375,-0.06462500244379044,-0.13722500205039978,0.11852499842643738
1752154082249538000,0.8475380859375,0.022687500342726707,-0.13942499458789825,0.11646249890327454
1752154082259391500,0.8573916015625,0.07163749635219574,-0.22027499973773956,0.11110000312328339
1752154082269245000,0.867244873046875,0.08002500236034393,-0.36176249384880066,0.09624999761581421
1752154082279098000,0.87709814453125,0.06201250106096268,-0.5022875070571899,0.08236250281333923
1752154082288951600,0.88695166015625,0.03217500075697899,-0.5438125133514404,0.08346249908208847
1752154082298805000,0.896804931640625,0.0193875003606081,-0.45649999380111694,0.10051249712705612
1752154082308658200,0.906658203125,0.07796250283718109,-0.23732499778270721,0.15152500569820404
1752154082318511600,0.91651171875,0.13750000298023224,0.02447500079870224,0.24406249821186066
1752154082328364800,0.92636474609375,0.14932499825954437,0.2139499932527542,0.33137500286102295
1752154082338218000,0.936218017578125,0.0364375002682209,0.1288374960422516,0.36217498779296875
1752154082348071700,0.94607177734375,-0.27431249618530273,0.023375000804662704,0.2451625019311905
1752154082357924900,0.9559248046875,-0.4573250114917755,-0.013749999925494194,0.12815000116825104
1752154082367778000,0.965778076171875,-0.3722124993801117,-0.06379999965429306,0.12072499841451645
1752154082377631500,0.975631591796875,-0.11467500030994415,-0.1755875051021576,0.08346249908208847
1752154082387485000,0.98548486328125,-0.02956249937415123,-0.23512500524520874,0.07177499681711197
1752154082397338000,0.995338134765625,-0.09336250275373459,-0.18411250412464142,0.11316250264644623
1752154082426895400,1.024895263671875,-0.11247500032186508,0.18095000088214874,0.22605000436306
1752154082436748000,1.034748046875,-0.10821250081062317,0.17352500557899475,0.17173749208450317
1752154082446602000,1.04460205078125,-0.14547500014305115,0.15111249685287476,0.06531249731779099
1752154082456455400,1.054455322265625,-0.23058749735355377,0.08195000141859055,-0.014437500387430191
1752154082466308600,1.06430859375,-0.3264249861240387,0.02447500079870224,-0.05816249921917915
1752154082476162000,1.074162109375,-0.421162486076355,0.02983750030398369,-0.05816249921917915
1752154082486015500,1.084015380859375,-0.4712125062942505,0.09363749623298645,-0.008112499490380287
1752154082495868700,1.09386865234375,-0.47753748297691345,0.21285000443458557,0.08442500233650208
1752154082505722000,1.10372216796875,-0.45416250824928284,0.31404998898506165,0.210099995136261
1752154082515575600,1.113575439453125,-0.42006251215934753,0.36822500824928284,0.33880001306533813
1752154082525428700,1.1234287109375,-0.40411248803138733,0.35337498784065247,0.42611250281333923
1752154082535282000,1.133281982421875,-0.415800005197525,0.3246375024318695,0.44206249713897705
1752154082559916000,1.157916015625,-0.5839625000953674,0.34911251068115234,0.37716248631477356
1752154082569771800,1.167771728515625,-0.6861249804496765,0.3735874891281128,0.3792249858379364
1752154082589478100,1.18747802734375,-0.7606499791145325,0.3086875081062317,0.3250499963760376
1752154082599331600,1.19733154296875,-0.7339749932289124,0.32147499918937683,0.2750000059604645
1752154082609185000,1.20718505859375,-0.6946499943733215,0.3172124922275543,0.22288750112056732
1752154082619038500,1.21703857421875,-0.6553249955177307,0.31501248478889465,0.17173749208450317
1752154082628891600,1.2268916015625,-0.6275500059127808,0.30332499742507935,0.12168750166893005
1752154082638745000,1.2367451171875,-0.6232874989509583,0.20762500166893005,0.08868750184774399
1752154082648598300,1.246598388671875,-0.6584874987602234,0.09583749622106552,0.07919999957084656
1752154082658451700,1.25645166015625,-0.7211874723434448,0.15015000104904175,0.08978749811649323
1752154082668305000,1.266304931640625,-0.8084999918937683,0.2947999835014343,0.12278749793767929
1752154082678158300,1.276158447265625,-0.8978750109672546,0.38321250677108765,0.16637499630451202
1752154082688011800,1.28601171875,-0.9755625128746033,0.4086500108242035,0.21642500162124634
1752154082697865200,1.295865234375,-1.0287749767303467,0.305525004863739,0.2750000059604645
1752154082707718100,1.30571826171875,-1.0575125217437744,0.09267500042915344,0.3419624865055084
1752154082717571600,1.315571533203125,-1.068237543106079,-0.13942499458789825,0.41222500801086426
1752154082727424800,1.3254248046875,-1.0958750247955322,-0.27871251106262207,0.4824874997138977
1752154082737278500,1.335278564453125,-1.174662470817566,-0.510812520980835,0.5399624705314636
1752154082747131600,1.345131591796875,-1.3235750198364258,-0.9140999913215637,0.591112494468689
1752154082756985000,1.354985107421875,-1.555537462234497,-1.2535874843597412,0.5974375009536743
1752154082766838500,1.364838623046875,-1.853637456893921,-1.452549934387207,0.5740625262260437
1752154082776691700,1.374691650390625,-2.1781375408172607,-1.6420249938964844,0.5143874883651733
1752154082786545000,1.384544921875,-2.5016748905181885,-1.8910374641418457,0.41222500801086426
1752154082796398300,1.3943984375,-2.7549500465393066,-2.04325008392334,0.21216249465942383
1752154082806251800,1.404251708984375,-2.81668758392334,-2.425225019454956,-0.09968750178813934
1752154082816105200,1.414105224609375,-2.7273125648498535,-3.063775062561035,-0.6199874877929688
1752154082825958400,1.42395849609375,-2.6389000415802,-3.8608624935150146,-1.2362624406814575
1752154082835811600,1.4338115234375,-2.5645124912261963,-4.939000129699707,-1.7863999605178833
1752154082845665000,1.4436650390625,-2.5016748905181885,-5.371025085449219,-2.2226874828338623
1752154082855518200,1.453518310546875,-2.552687406539917,-5.104962348937988,-2.4833874702453613
1752154082865371600,1.46337158203125,-2.6123623847961426,-4.9475250244140625,-2.7282750606536865
1752154082875225000,1.47322509765625,-2.530412435531616,-4.992212295532227,-3.0677623748779297
1752154082885078300,1.483078369140625,-2.318662405014038,-5.25181245803833,-3.3954250812530518
1752154082894931700,1.492931640625,-2.0674500465393066,-5.6285624504089355,-3.5550625324249268
1752154082904785200,1.50278515625,-1.8130749464035034,-5.596662521362305,-3.61899995803833
1752154082914638300,1.512638427734375,-1.6684249639511108,-4.427087306976318,-3.8817625045776367
1752154082924491500,1.522491455078125,-1.5842750072479248,-3.4330999851226807,-4.388312339782715
1752154082934345200,1.53234521484375,-1.518412470817566,-2.630650043487549,-5.115274906158447
1752154082944198700,1.54219873046875,-1.3459874391555786,-1.8665624856948853,-5.147174835205078
1752154082954051800,1.5520517578125,-0.8170250058174133,-2.363487482070923,-4.529937267303467
1752154082983612000,1.58161181640625,-0.02213750034570694,-0.2712875008583069,-3.237987518310547
1752154082993465000,1.591465087890625,-0.02956249937415123,0.31501248478889465,-2.9889750480651855
1752154083023025400,1.621025390625,-0.6829624772071838,1.6911125183105469,-2.609062433242798
1752154083082145300,1.680145263671875,-1.4151500463485718,-0.4596624970436096,-1.0755250453948975
1752154083091998700,1.689998779296875,-1.227874994277954,-0.2946625053882599,-0.9212499856948853
1752154083101852000,1.699851806640625,-1.1820875406265259,-0.08607500046491623,-0.8020374774932861
1752154083111705300,1.709705322265625,-1.2086249589920044,0.05321250110864639,-0.7158250212669373
1752154083121558500,1.71955859375,-1.166137456893921,-0.045649997889995575,-0.7008374929428101
1752154083131412200,1.729412109375,-1.1246124505996704,-0.16802500188350677,-0.6711375117301941
1752154083141265400,1.739265380859375,-1.1533499956130981,-0.18191249668598175,-0.608299970626831
1752154083151118800,1.749118896484375,-1.1820875406265259,-0.10958749800920486,-0.5018749833106995
1752154083160972300,1.75897216796875,-1.1628375053405762,-0.047849997878074646,-0.3689124882221222
1752154083170825500,1.768825439453125,-0.9713000059127808,-0.09569999575614929,-0.24543750286102295
1752154083180678700,1.7786787109375,-0.727649986743927,-0.23512500524520874,-0.2241249978542328
1752154083190532000,1.788531982421875,-0.4562250077724457,-0.32243749499320984,-0.23897500336170197
1752154083200385500,1.798385498046875,-0.28806251287460327,-0.24791249632835388,-0.27197501063346863
1752154083210238700,1.80823876953125,-0.20941250026226044,-0.040424998849630356,-0.29218751192092896
1752154083229945300,1.8279453125,0.12058749794960022,0.1671999990940094,-0.34759998321533203
1752154083239799000,1.837799072265625,0.3993000090122223,-0.07975000143051147,-0.39544999599456787
1752154083249652200,1.84765234375,0.6803500056266785,-0.23828749358654022,-0.40933749079704285
1752154083259505400,1.85750537109375,0.9037874937057495,-0.29686251282691956,-0.2634499967098236
1752154083269358800,1.86735888671875,0.8090500235557556,-0.2777499854564667,-0.024062499403953552
1752154083279212300,1.87721240234375,0.3078624904155731,-0.14354999363422394,0.23567499220371246
1752154083289065500,1.8870654296875,0.11302500218153,-0.09253749996423721,0.32394999265670776
1752154083298919000,1.8969189453125,0.15991249680519104,-0.2638624906539917,0.41552498936653137
1752154083308772000,1.906772216796875,0.05458749830722809,-0.4362874925136566,0.3834874927997589
1752154083318625500,1.91662548828125,-0.0625625029206276,-0.3255999982357025,0.47079998254776
1752154083328479000,1.92647900390625,-0.13378749787807465,-0.06270000338554382,0.6133875250816345
1752154083338332400,1.93633251953125,-0.11577499657869339,-0.10216250270605087,0.6037625074386597
1752154083348185600,1.946185546875,-0.09446249902248383,-0.36602500081062317,0.45691248774528503
1752154083358038800,1.956038818359375,-0.08483749628067017,-0.353237509727478,0.44948750734329224
1752154083367892200,1.965892333984375,-0.060362499207258224,-0.2149125039577484,0.4207499921321869
1752154083377745700,1.97574560546875,-0.06888750195503235,-0.33192500472068787,0.3143250048160553
1752154083387599000,1.98559912109375,-0.08703749626874924,-0.4511374831199646,0.25052499771118164
1752154083397452500,1.99545263671875,-0.01251249946653843,-0.35007500648498535,0.1919499933719635
1752154083407306000,2.005305908203125,0.042899999767541885,-0.3139125108718872,0.04619999974966049
1752154083417159000,2.015158935546875,0.05555000156164169,-0.40328750014305115,-0.16554999351501465
1752154083427012400,2.025012451171875,0.05555000156164169,-0.25423750281333923,-0.24543750286102295
1752154083436865800,2.03486572265625,0.1163249984383583,-0.10958749800920486,-0.2634499967098236
1752154083446719200,2.04471923828125,0.1929125040769577,-0.15853749215602875,-0.3123999834060669
1752154083456572400,2.054572509765625,0.3291749954223633,-0.1648624986410141,-0.2890250086784363
1752154083466426000,2.064426025390625,0.5036625266075134,-0.2755500078201294,-0.24860000610351562
1752154083476279300,2.074279296875,0.7176125049591064,-0.6246625185012817,-0.26028749346733093
1752154083486132500,2.084132568359375,1.038949966430664,-1.116225004196167,-0.36355000734329224
1752154083495986000,2.09398583984375,1.3624874353408813,-1.535599946975708,-0.47203749418258667
1752154083505839400,2.10383935546875,1.607237458229065,-1.552649974822998,-0.5178250074386597
1752154083515692500,2.113692626953125,1.6658124923706055,-1.1130625009536743,-0.3965499997138977
1752154083525546000,2.1235458984375,1.6009124517440796,-0.9257875084877014,-0.4124999940395355
1752154083535399700,2.133399658203125,1.6487624645233154,-0.7331500053405762,-0.4870249927043915
1752154083545252900,2.1432529296875,1.6455999612808228,-0.5501375198364258,-0.4805625081062317
1752154083555106000,2.15310595703125,1.7040375471115112,-0.18191249668598175,-0.5636125206947327
1752154083564959500,2.16295947265625,1.3965874910354614,0.004399999976158142,-0.4571875035762787
1752154083574813000,2.17281298828125,1.3092750310897827,0.13626250624656677,-0.454987496137619
1752154083584666400,2.182666259765625,1.2645875215530396,0.21078750491142273,-0.6785625219345093
1752154083604373000,2.202373046875,0.5451874732971191,-0.5171374678611755,-0.17297500371932983
1752154083614226200,2.21222607421875,0.5941374897956848,-0.8045125007629395,-0.13474999368190765
1752154083643786200,2.2417861328125,1.1357499361038208,-0.344712495803833,-0.10064999759197235
1752154083673346600,2.2713466796875,1.1251624822616577,-0.6810374855995178,0.2451625019311905
1752154083683199500,2.281199462890625,1.1676499843597412,-0.5916625261306763,0.48785001039505005
1752154083693053000,2.291052978515625,1.1815375089645386,-0.4405499994754791,0.6719624996185303
1752154083702906600,2.30090673828125,1.3092750310897827,-0.7012500166893005,0.8219749927520752
1752154083712759800,2.310759765625,1.2336499691009521,-0.43834999203681946,1.055037498474121
1752154083722613200,2.32061328125,1.0995874404907227,-0.2946625053882599,1.253999948501587
1752154083732466700,2.330466796875,1.0570999383926392,-0.44907498359680176,1.2274625301361084
1752154083742319900,2.34031982421875,0.8813750147819519,0.780174970626831,1.8031749725341797
1752154083752173300,2.35017333984375,0.722837507724762,0.11715000122785568,1.7286499738693237
1752154083771879700,2.369879638671875,0.6866750121116638,-0.7693125009536743,1.3285249471664429
1752154083781733400,2.3797333984375,0.4866124987602234,-0.32243749499320984,1.4616249799728394
1752154083791586800,2.3895869140625,0.4632374942302704,-0.15207499265670776,1.5956875085830688
1752154083801440000,2.39943994140625,0.555774986743927,-0.16060000658035278,1.6691124439239502
1752154083811293400,2.40929345703125,0.6451500058174133,-0.2340250015258789,1.7531249523162842
1752154083821147000,2.41914697265625,0.8112499713897705,-0.49472498893737793,1.7265875339508057
1752154083831000000,2.429,0.8952624797821045,-0.6650875210762024,1.6531624794006348
1752154083840853500,2.438853515625,0.8420500159263611,-0.6958875060081482,1.574375033378601
1752154083850707000,2.44870703125,1.047474980354309,-0.5820375084877014,1.5467374324798584
1752154083860560400,2.458560302734375,0.991100013256073,-0.6703125238418579,1.4722124338150024
1752154083870413600,2.46841357421875,0.852774977684021,-0.5362499952316284,1.4115749597549438
1752154083880267000,2.47826708984375,0.9208375215530396,-0.4021874964237213,1.1486749649047852
1752154083890120400,2.488120361328125,0.6994624733924866,-0.026537500321865082,1.2732499837875366
1752154083899973600,2.4979736328125,0.6089875102043152,0.37152498960494995,1.3114750385284424
1752154083909827000,2.5078271484375,0.6866750121116638,0.45980000495910645,1.2200374603271484
1752154083919680500,2.517680419921875,0.7037249803543091,0.48963749408721924,1.1273624897003174
1752154083929533700,2.52753369140625,0.8101499676704407,0.42157500982284546,0.9326624870300293
1752154083939387100,2.53738720703125,0.7484124898910522,0.5502749681472778,0.8762875199317932
1752154083949240600,2.547240478515625,0.6451500058174133,1.2973124980926514,1.0837750434875488
1752154083959094000,2.557093994140625,0.5142499804496765,1.8327374458312988,1.1614625453948975
1752154083968947200,2.566947265625,0.6516125202178955,1.0760749578475952,0.8507124781608582
1752154083978800600,2.576800537109375,0.8431500196456909,0.9514999985694885,0.8241750001907349
1752154083988654000,2.586654052734375,0.8941624760627747,1.1611875295639038,0.8188124895095825
1752154083998507300,2.59650732421875,0.9325249791145325,0.6919000148773193,0.8039624691009521
1752154084008360700,2.606360595703125,0.9686874747276306,0.566224992275238,0.8327000141143799
1752154084018214100,2.616214111328125,0.9347249865531921,0.4460499882698059,0.9209749698638916
1752154084028067600,2.626067626953125,0.8366875052452087,0.1555124968290329,0.9593374729156494
1752154084037921000,2.635921142578125,0.6334624886512756,-0.13392500579357147,0.9752874970436096
1752154084047774500,2.6457744140625,0.41208750009536743,-0.3957250118255615,0.9081875085830688
1752154084057627600,2.655627685546875,0.17476250231266022,-0.6734749674797058,0.7794874906539917
1752154084067480800,2.665480712890625,0.023649999871850014,-0.6554625034332275,0.6198499798774719
1752154084077334300,2.675334228515625,-0.045512501150369644,-0.6660500168800354,0.5325375199317932
1752154084087188000,2.68518798828125,-0.23704999685287476,-0.6033499836921692,0.4452250003814697
1752154084097041200,2.695041259765625,-0.5201625227928162,-0.46172499656677246,0.3367374837398529
1752154084106894600,2.70489453125,-0.8053374886512756,-0.20212499797344208,0.26221248507499695
1752154084116748000,2.714748046875,-0.9851874709129333,0.1321374922990799,0.17489999532699585
1752154084126601200,2.724601318359375,-0.8127624988555908,0.40232500433921814,-0.024062499403953552
1752154084136454700,2.73445458984375,-0.5605875253677368,0.26826250553131104,-0.03258749842643738
1752154084146308000,2.74430810546875,-0.15193749964237213,0.3385249972343445,0.12168750166893005
1752154084156161300,2.754161376953125,0.15358750522136688,0.334262490272522,0.17599999904632568
1752154084166014700,2.7640146484375,0.23966249823570251,0.3086875081062317,0.12278749793767929
1752154084175868000,2.773867919921875,0.18754999339580536,0.27568748593330383,0.0004124999977648258
1752154084185721300,2.783721435546875,0.20886249840259552,0.2012999951839447,-0.03891250118613243
1752154084195574800,2.79357470703125,0.40466248989105225,0.35667499899864197,-0.013337500393390656
1752154084205428200,2.80342822265625,0.41635000705718994,0.18851250410079956,0.023787500336766243
1752154084215281400,2.813281494140625,0.35791251063346863,0.09267500042915344,0.08882500231266022
1752154084225135000,2.823135009765625,0.3301374912261963,0.28847500681877136,0.07383749634027481
1752154084234988300,2.83298828125,0.272662490606308,0.5246999859809875,-0.024062499403953552
1752154084244841700,2.842841796875,0.23759999871253967,0.7024874687194824,-0.12196250259876251
1752154084254695200,2.852695068359375,0.19401249289512634,0.649275004863739,-0.15606249868869781
1752154084264548600,2.862548583984375,0.1013374999165535,0.2927374839782715,-0.07617499679327011
1752154084274401800,2.87240185546875,-0.0017874999903142452,-0.1765500009059906,0.07919999957084656
1752154084284255000,2.8822548828125,-0.09129999577999115,-0.6916249990463257,0.20899999141693115
1752154084294108700,2.892108642578125,-0.17737500369548798,-1.117324948310852,0.3558500111103058
1752154084303961900,2.9019619140625,-0.3497999906539917,-1.7760875225067139,0.927299976348877
1752154084313815300,2.911815185546875,-0.6041749715805054,-2.0069499015808105,1.1710875034332275
1752154084323668500,2.92166845703125,-0.7074375152587891,-1.341862440109253,0.981612503528595
1752154084333522200,2.931522216796875,-0.2891624867916107,-0.7926874756813049,0.6452875137329102
1752154084343375400,2.941375244140625,-0.1284250020980835,-0.6660500168800354,0.5900124907493591
1752154084353228500,2.951228515625,-0.16788749396800995,-1.0300124883651733,0.6580749750137329
1752154084363082000,2.96108203125,-0.3605250120162964,-1.5046625137329102,0.7719249725341797
1752154084372935400,2.970935302734375,-0.5009124875068665,-1.746250033378601,0.8082249760627747
1752154084382788900,2.980788818359375,-0.421162486076355,-1.6972999572753906,0.6315374970436096
1752154084392642000,2.99064208984375,-0.23842500150203705,-1.292912483215332,0.4096125066280365
1752154084402495500,3.00049560546875,-0.11715000122785568,-1.0459624528884888,0.2712875008583069
1752154084412349000,3.010348876953125,-0.2172500044107437,-1.1726000308990479,0.2297624945640564
1752154084422202400,3.020202392578125,-0.06929999589920044,-0.47987499833106995,0.032862499356269836
1752154084432055600,3.0300556640625,-0.08951249718666077,0.011824999935925007,-0.2087250053882599
1752154084441909000,3.039908935546875,-0.22151249647140503,0.40562498569488525,-0.26510000228881836
1752154084451762400,3.049762451171875,-0.48647499084472656,0.5471125245094299,-0.1671999990940094
1752154084461615900,3.059615966796875,-0.6258999705314636,0.7195374965667725,-0.25561249256134033
1752154084471469000,3.069468994140625,-0.42157500982284546,1.0973875522613525,-0.5832750201225281
1752154084481322500,3.079322509765625,-0.18947499990463257,1.6464250087738037,-0.8344874978065491
1752154084491176000,3.089176025390625,0.13722500205039978,2.4030873775482178,-1.0291874408721924
1752154084501029000,3.099029052734375,0.1882375031709671,2.8447375297546387,-1.2676124572753906
1752154084510882600,3.108882568359375,0.32023748755455017,2.8032124042510986,-1.441137433052063
1752154084520736000,3.118736083984375,0.5649874806404114,2.1232750415802,-1.524049997329712
1752154084530589400,3.12858935546875,0.7587249875068665,1.5283124446868896,-1.2303500175476074
1752154084540442600,3.138442626953125,0.8863250017166138,1.0334500074386597,-0.7748125195503235
1752154084550296000,3.148296142578125,0.9417374730110168,0.5502749681472778,-0.3726249933242798
1752154084560149500,3.1581494140625,0.9662125110626221,0.937749981880188,-0.24172499775886536
1752154084570002700,3.168002685546875,0.9693750143051147,1.624150037765503,-0.304562509059906
1752154084579856400,3.1778564453125,0.9289500117301941,1.8145874738693237,-0.602524995803833
1752154084589709800,3.187709716796875,0.8490625023841858,1.6890499591827393,-0.7269625067710876
1752154084599563000,3.19756298828125,0.8533250093460083,1.1845624446868896,-0.9207000136375427
1752154084609416200,3.207416259765625,1.173699975013733,0.9334874749183655,-0.7673875093460083
1752154084619269600,3.21726953125,1.8015249967575073,0.45883750915527344,-0.4449499845504761
1752154084629123000,3.227123046875,2.2081124782562256,0.13103750348091125,-0.11824999749660492
1752154084638976500,3.2369765625,2.0633249282836914,0.1979999989271164,0.08387500047683716
1752154084648830000,3.246829833984375,1.7089874744415283,0.4204750061035156,0.17118750512599945
1752154084658683400,3.256683349609375,1.3726625442504883,0.6897000074386597,0.22659999132156372
1752154084668536600,3.26653662109375,0.9832624793052673,0.7493749856948853,0.3137750029563904
1752154084678389800,3.2763896484375,0.5341874957084656,0.6705874800682068,0.39256250858306885
1752154084688243200,3.2862431640625,0.14354999363422394,0.47052499651908875,0.42336249351501465
1752154084698096600,3.2960966796875,-0.1714625060558319,0.46309998631477356,0.45319998264312744
1752154084707950000,3.3059501953125,-0.4258374869823456,0.49816250801086426,0.5075125098228455
1752154084717803300,3.31580322265625,-0.6333249807357788,0.45883750915527344,0.5191999673843384
1752154084727656700,3.32565673828125,-0.7875999808311462,0.3544749915599823,0.4702500104904175
1752154084737510100,3.33551025390625,-0.9781749844551086,0.1938749998807907,0.345674991607666
1752154084747363600,3.345363525390625,-1.2207249402999878,0.07246249914169312,0.026399999856948853
1752154084757217000,3.355217041015625,-1.2175624370574951,0.1363999992609024,-0.5832750201225281
1752154084767070500,3.365070556640625,-0.6748499870300293,-0.009487500414252281,-0.9323874711990356
1752154084776923600,3.374923583984375,-0.030937500298023224,-0.3988874852657318,-0.4375250041484833
1752154084786777000,3.384777099609375,0.36492499709129333,-0.6128374934196472,0.05087500065565109
1752154084796630500,3.394630615234375,0.4320249855518341,-0.5160375237464905,0.2574000060558319
1752154084806484000,3.40448388671875,0.3871999979019165,-0.2414499968290329,0.28613749146461487
1752154084816337200,3.414337158203125,0.2605625092983246,-0.027499999850988388,0.23925000429153442
1752154084826190600,3.424190673828125,0.24461250007152557,0.14272500574588776,0.18507499992847443
1752154084836044000,3.4340439453125,0.22659999132156372,0.2012999951839447,0.13392500579357147
1752154084845897500,3.4438974609375,0.21697500348091125,0.12787500023841858,0.11687500029802322
1752154084855750700,3.453750732421875,0.23292499780654907,0.020349999889731407,0.10092499852180481
1752154084865603800,3.463603759765625,0.21697500348091125,-0.08923749625682831,0.11261250078678131
1752154084875457500,3.47345751953125,0.17765000462532043,-0.1381874978542328,0.14354999363422394
1752154084885311000,3.48331103515625,0.11591249704360962,-0.16169999539852142,0.18933749198913574
1752154084895164200,3.4931640625,0.04881250113248825,-0.16802500188350677,0.2149125039577484
1752154084905017900,3.503017822265625,-0.008662499487400055,-0.1541374921798706,0.20212499797344208
1752154084914871000,3.51287109375,-0.04372499883174896,-0.14354999363422394,0.1691250056028366
1752154084924724500,3.522724365234375,-0.06613750010728836,-0.12966249883174896,0.1264999955892563
1752154084934578000,3.532577880859375,-0.07356250286102295,-0.10518749803304672,0.09143749624490738
1752154084944431400,3.542431396484375,-0.08304999768733978,-0.06902500241994858,0.07644999772310257
1752154084954284500,3.552284423828125,-0.09693749994039536,-0.038087498396635056,0.06792499870061874
1752154084964138000,3.562137939453125,-0.10119999945163727,-0.0317624993622303,0.06792499870061874
1752154084973991400,3.571991455078125,-0.10009999573230743,-0.04138749837875366,0.05953750014305115
1752154084983844900,3.581844970703125,-0.09267500042915344,-0.0668250024318695,0.045649997889995575
1752154084993698000,3.591697998046875,-0.08304999768733978,-0.07328750193119049,0.02969999983906746
1752154085003551700,3.6015517578125,-0.0798875018954277,-0.0668250024318695,0.023237500339746475
1752154085013405000,3.611405029296875,-0.08098749816417694,-0.047712501138448715,0.032862499356269836
1752154085023258400,3.62125830078125,-0.08524999767541885,-0.02956249937415123,0.049912501126527786
1752154085033111800,3.63111181640625,-0.08635000139474869,-0.009349999949336052,0.06476250290870667
1752154085042965200,3.64096533203125,-0.08304999768733978,0.01718750037252903,0.06476250290870667
1752154085052818400,3.650818359375,-0.07466249912977219,0.03849999979138374,0.05843750014901161
1752154085062672000,3.660671875,-0.06613750010728836,0.0448249988257885,0.055275000631809235
1752154085072525300,3.670525390625,-0.06187500059604645,0.03849999979138374,0.060499999672174454
1752154085082378800,3.680378662109375,-0.055412501096725464,0.028875000774860382,0.07644999772310257
1752154085092232000,3.69023193359375,-0.05224999785423279,0.012924999929964542,0.09569999575614929
1752154085102085400,3.70008544921875,-0.05857500061392784,-0.009349999949336052,0.10944999754428864
1752154085111938800,3.709938720703125,-0.07039999961853027,-0.030662499368190765,0.10202500224113464
1752154085121792300,3.719792236328125,-0.09157499670982361,-0.047712501138448715,0.0849749967455864
1752154085131645400,3.7296455078125,-0.10862500220537186,-0.057337500154972076,0.07012499868869781
1752154085141499100,3.7394990234375,-0.12251249700784683,-0.047712501138448715,0.06366249918937683
1752154085151352300,3.749352294921875,-0.13103750348091125,-0.03382499888539314,0.06902500241994858
1752154085161205800,3.759205810546875,-0.13103750348091125,-0.012649999931454659,0.07864999771118164
1752154085171059000,3.769058837890625,-0.1256749927997589,0.007562499959021807,0.07975000143051147
1752154085180912600,3.77891259765625,-0.11824999749660492,0.021449999883770943,0.06476250290870667
1752154085190765800,3.788765869140625,-0.11082500219345093,0.03203750029206276,0.0424874983727932
1752154085200619300,3.798619384765625,-0.10119999945163727,0.03629999980330467,0.026537500321865082
1752154085210472700,3.80847265625,-0.09583749622106552,0.04908749833703041,0.0317624993622303
1752154085220326100,3.818326171875,-0.09157499670982361,0.06503749638795853,0.055275000631809235
1752154085230179600,3.8281796875,-0.09157499670982361,0.08524999767541885,0.09239999949932098
1752154085240032800,3.83803271484375,-0.09377499669790268,0.10546249896287918,0.12443749606609344
1752154085249886500,3.847886474609375,-0.09267500042915344,0.11508750170469284,0.14464999735355377
1752154085259740000,3.857739990234375,-0.08304999768733978,0.11192499846220016,0.14464999735355377
1752154085269593000,3.867593017578125,-0.07466249912977219,0.11302500218153,0.13296249508857727
1752154085279446500,3.877446533203125,-0.06929999589920044,0.11302500218153,0.12223749607801437
1752154085289300000,3.887300048828125,-0.05967500060796738,0.11192499846220016,0.11687500029802322
1752154085299153200,3.897153076171875,-0.04592499881982803,0.10876250267028809,0.1190750002861023
1752154085309006600,3.907006591796875,-0.023512499406933784,0.11192499846220016,0.1190750002861023
1752154085318860000,3.916860107421875,0.002062499988824129,0.12581250071525574,0.11055000126361847
1752154085328713500,3.92671337890625,0.02969999983906746,0.15344999730587006,0.09350000321865082
1752154085338566700,3.936566650390625,0.060499999672174454,0.17366249859333038,0.07438749819993973
1752154085348420000,3.946420166015625,0.08923749625682831,0.1970375031232834,0.07012499868869781
1752154085358273800,3.956273681640625,0.10944999754428864,0.227974995970726,0.08291249722242355
1752154085368127000,3.966126953125,0.12333749979734421,0.2895750105381012,0.12223749607801437
1752154085377980200,3.975980224609375,0.12443749606609344,0.36629998683929443,0.17861250042915344
1752154085387833900,3.985833740234375,0.11055000126361847,0.4300999939441681,0.25107499957084656
1752154085397687000,3.99568701171875,0.07232499867677689,0.48221248388290405,0.3148750066757202
1752154085407540500,4.00554052734375,-0.0012374999932944775,0.5546749830245972,0.39256250858306885
1752154085417394200,4.015394287109375,-0.113987497985363,0.6653624773025513,0.4883999824523926
1752154085427247400,4.025247314453125,-0.24598750472068787,0.779212474822998,0.5852000117301941
1752154085437100800,4.035100830078125,-0.32573750615119934,0.8749125003814697,0.6373124718666077
1752154085446954000,4.0449541015625,-0.32257500290870667,0.9229000210762024,0.6564249992370605
1752154085456807400,4.054807373046875,-0.23842500150203705,0.909012496471405,0.6617875099182129
1752154085466660900,4.064660888671875,-0.13420000672340393,0.8387500047683716,0.6437749862670898
1752154085476514300,4.074514404296875,-0.0340999998152256,0.7387874722480774,0.6213625073432922
1752154085486367500,4.084367431640625,0.06476250290870667,0.5769500136375427,0.5905625224113464
1752154085496221200,4.09422119140625,0.16169999539852142,0.3917374908924103,0.5511000156402588
1752154085506074400,4.104074462890625,0.26276248693466187,0.2576749920845032,0.5000874996185303
1752154085515927800,4.113927734375,0.35530000925064087,0.16197499632835388,0.42239999771118164
1752154085525781500,4.123781494140625,0.4320249855518341,0.04908749833703041,0.33192500472068787
1752154085535634700,4.133634765625,0.4745124876499176,-0.08071249723434448,0.24034999310970306
1752154085545488100,4.143488037109375,0.47987499833106995,-0.21367499232292175,0.12540000677108765
1752154085555341300,4.15334130859375,0.46915000677108765,-0.35420000553131104,-0.04592499881982803
1752154085565195000,4.163195068359375,0.44577500224113464,-0.48399999737739563,-0.28751251101493835
1752154085575048200,4.173048095703125,0.45003750920295715,-0.6096749901771545,-0.5801125168800354
1752154085584901600,4.182901611328125,0.47244998812675476,-0.7363125085830688,-0.8823375105857849
1752154085594755000,4.192755126953125,0.503250002861023,-0.8618500232696533,-1.1430374383926392
1752154085604608500,4.2026083984375,0.5138375163078308,-1.006637454032898,-1.3633124828338623
1752154085614461700,4.212461669921875,0.4862000048160553,-1.1119624376296997,-1.4942125082015991
1752154085624315400,4.2223154296875,0.4127750098705292,-1.142762541770935,-1.4645124673843384
1752154085634168800,4.2321689453125,0.29260000586509705,-1.1310750246047974,-1.3122999668121338
1752154085644022000,4.24202197265625,0.13186250627040863,-1.090649962425232,-1.207937479019165
1752154085653875700,4.251875732421875,-0.0448249988257885,-1.0203875303268433,-1.1580250263214111
1752154085663729000,4.26172900390625,-0.20336249470710754,-0.847000002861023,-0.9909625053405762
1752154085673582300,4.271582275390625,-0.2853125035762787,-0.5244249701499939,-0.4694249927997589
1752154085683435800,4.281435791015625,-0.34814998507499695,-0.08813749998807907,0.28613749146461487
1752154085693289200,4.291289306640625,-0.41084998846054077,0.25341248512268066,0.8970500230789185
1752154085703142400,4.301142333984375,-0.3885749876499176,0.4599374830722809,1.0854250192642212
1752154085712996000,4.31099609375,-0.34168750047683716,0.6386874914169312,0.9789999723434448
1752154085722849500,4.320849609375,-0.3928374946117401,0.9451749920845032,0.8447999954223633
1752154085732702700,4.33070263671875,-0.47148749232292175,1.2707749605178833,0.8501625061035156
1752154085742556200,4.34055615234375,-0.5407875180244446,1.458187460899353,1.0023750066757202
1752154085752409600,4.35040966796875,-0.5715875029563904,1.4442999362945557,1.1631125211715698
1752154085762263000,4.360262939453125,-0.5524749755859375,1.2601875066757202,1.200237512588501
1752154085772116200,4.3701162109375,-0.4885374903678894,1.0250624418258667,1.067275047302246
1752154085781969700,4.3799697265625,-0.42473748326301575,0.825962483882904,0.8043749928474426
1752154085791823000,4.389822998046875,-0.38321250677108765,0.6972625255584717,0.46488749980926514
1752154085801676500,4.399676513671875,-0.3843125104904175,0.5493124723434448,0.14464999735355377
1752154085811530000,4.409530029296875,-0.3959999978542328,0.31308749318122864,-0.07672499865293503
1752154085821383400,4.419383544921875,-0.39063748717308044,0.03423750028014183,-0.21834999322891235
1752154085831236900,4.42923681640625,-0.35241249203681946,-0.2190375030040741,-0.328900009393692
1752154085841090000,4.439090087890625,-0.27994999289512634,-0.39998748898506165,-0.44288748502731323
1752154085850943500,4.448943603515625,-0.18424999713897705,-0.5511000156402588,-0.5684249997138977
1752154085860797200,4.458797119140625,-0.05857500061392784,-0.6936874985694885,-0.6971250176429749
1752154085870650400,4.468650390625,0.09253749996423721,-0.8320124745368958,-0.8120750188827515
1752154085880503800,4.47850390625,0.25423750281333923,-0.9512249827384949,-0.9238625168800354
1752154085890357200,4.488357177734375,0.40851250290870667,-1.0300124883651733,-0.9941250085830688
1752154085900210700,4.498210693359375,0.5436750054359436,-1.0650750398635864,-0.9706124663352966
1752154085910063900,4.50806396484375,0.671412467956543,-0.9788625240325928,-0.7748125195503235
1752154085919917600,4.51791748046875,0.717199981212616,-0.7415375113487244,-0.43216249346733093
1752154085929771000,4.52777099609375,0.6489999890327454,-0.4904625117778778,-0.11288750171661377
1752154085939624400,4.53762451171875,0.5362499952316284,-0.31693750619888306,0.06696250289678574
1752154085949477600,4.5474775390625,0.42666250467300415,-0.2690874934196472,0.10422500222921371
1752154085959331000,4.5573310546875,0.3489750027656555,-0.26688748598098755,0.009487500414252281
1752154085969184500,4.5671845703125,0.3020874857902527,-0.1839749962091446,-0.14162500202655792
1752154085979037700,4.57703759765625,0.2340250015258789,-0.008387500420212746,-0.2428250014781952
1752154085988891400,4.586891357421875,0.1722874939441681,0.12044999748468399,-0.22783750295639038
1752154085998744800,4.596744873046875,0.12553749978542328,0.20239999890327454,-0.13529999554157257
1752154086008598000,4.606597900390625,0.07975000143051147,0.22577500343322754,-0.04908749833703041
1752154086018451700,4.61645166015625,0.02433750033378601,0.2162874937057495,-0.013887500390410423
1752154086028305000,4.626304931640625,-0.02983750030398369,0.16733749210834503,0.0030249999836087227
1752154086038158300,4.636158447265625,-0.055412501096725464,0.07039999961853027,-0.00976249948143959
1752154086048011800,4.64601171875,-0.06283749639987946,-0.053075000643730164,-0.029975000768899918
1752154086057865200,4.655865234375,-0.055412501096725464,-0.15523749589920044,-0.05335000157356262
1752154086067718700,4.66571875,-0.020349999889731407,-0.21793749928474426,-0.05444999784231186
1752154086077572000,4.675572021484375,0.019112499430775642,-0.15729999542236328,-0.027775000780820847
1752154086087425500,4.685425537109375,0.032862499356269836,-0.04881250113248825,-0.02241249941289425
1752154086097279000,4.695279052734375,0.026537500321865082,0.03739999979734421,-0.014987500384449959
1752154086107132200,4.705132080078125,0.026537500321865082,0.09487500041723251,-0.01924999989569187
1752154086116985600,4.714985595703125,0.030799999833106995,0.14176249504089355,-0.047987498342990875
1752154086126839000,4.724839111328125,0.020075000822544098,0.08744999766349792,-0.055412501096725464
1752154086136692500,4.7346923828125,0.053075000643730164,-0.006187499966472387,-0.04166249930858612
1752154086146546000,4.7445458984375,0.09253749996423721,-0.08923749625682831,-0.00013749999925494194
1752154086156399400,4.7543994140625,0.13392500579357147,-0.1498750001192093,0.07438749819993973
1752154086166252800,4.764252685546875,0.1765500009059906,-0.15303750336170197,0.12223749607801437
1752154086176106200,4.774106201171875,0.18617500364780426,-0.1467124968767166,0.1648624986410141
1752154086185959400,4.78395947265625,0.20212499797344208,-0.16046249866485596,0.19882500171661377
1752154086195813000,4.793813232421875,0.1956624984741211,-0.10092499852180481,0.17434999346733093
1752154086205666300,4.803666259765625,0.2106499969959259,-0.03712499886751175,0.16596250236034393
1752154086215519700,4.813519775390625,0.22439999878406525,0.015124999918043613,0.1381874978542328
1752154086225373400,4.82337353515625,0.2297624945640564,0.08002500236034393,0.12870000302791595
1752154086235226600,4.8332265625,0.25423750281333923,0.05238749831914902,0.1691250056028366
1752154086245080000,4.843080078125,0.2605625092983246,0.008662499487400055,0.19456249475479126
1752154086254933500,4.85293359375,0.25107499957084656,-0.06792499870061874,0.24461250007152557
1752154086264787000,4.862786865234375,0.22659999132156372,-0.11481250077486038,0.2595999836921692
1752154086274640400,4.872640380859375,0.1999250054359436,-0.14767499268054962,0.25850000977516174
1752154086284493800,4.882493896484375,0.1722874939441681,-0.15523749589920044,0.24681249260902405
1752154086294347300,4.89234716796875,0.14038750529289246,-0.16472500562667847,0.2106499969959259
1752154086304200700,4.90220068359375,0.11591249704360962,-0.14561249315738678,0.1722874939441681
1752154086314054100,4.91205419921875,0.04675000160932541,-0.10298749804496765,0.10518749803304672
1752154086323907600,4.921907470703125,0.0009624999947845936,-0.09129999577999115,0.07328750193119049
1752154086333760800,4.9317607421875,-0.06187500059604645,-0.04661250114440918,0.01691249944269657
1752154086343614500,4.941614501953125,-0.11178749799728394,-0.043449997901916504,-0.00013749999925494194
1752154086353468000,4.951468017578125,-0.15757499635219574,0.0034374999813735485,-0.04262499883770943
1752154086363321000,4.961321044921875,-0.19167499244213104,-0.06366249918937683,-0.05967500060796738
1752154086373174800,4.9711748046875,-0.20446249842643738,-0.045512501150369644,-0.07246249914169312
1752154086383028200,4.9810283203125,-0.21615000069141388,-0.08387500047683716,-0.0789249986410141
1752154086392881400,4.99088134765625,-0.2055625021457672,-0.08923749625682831,-0.05224999785423279
1752154086402734800,5.00073486328125,-0.2096875011920929,-0.06888750195503235,-0.06187500059604645
1752154086412588300,5.01058837890625,-0.18095000088214874,-0.07851249724626541,-0.021449999883770943
1752154086422441700,5.020441650390625,-0.17036250233650208,-0.0147124994546175,-0.023512499406933784
1752154086432295200,5.030295166015625,-0.1480875015258789,-0.01993750035762787,0.007287499960511923
1752154086442148600,5.040148681640625,-0.1480875015258789,0.059812501072883606,-0.012924999929964542
1752154086452002000,5.050001953125,-0.13199999928474426,0.0364375002682209,0.008387500420212746
1752154086461855500,5.05985546875,-0.12773749232292175,0.08318749815225601,-0.005499999970197678
1752154086471709000,5.069708984375,-0.1097249984741211,0.018287500366568565,0.023237500339746475
1752154086481562400,5.079562255859375,-0.10862500220537186,0.07796250283718109,0.010587500408291817
1752154086491415800,5.089415771484375,-0.10119999945163727,-0.003987499978393316,0.030799999833106995
1752154086501269200,5.099269287109375,-0.10436250269412994,0.007699999958276749,0.025437500327825546
1752154086511122700,5.109122802734375,-0.10009999573230743,-0.05939999967813492,0.049912501126527786
1752154086520976000,5.118975830078125,-0.10752499848604202,-0.028462499380111694,0.0541750006377697
1752154086530829600,5.12882958984375,-0.10546249896287918,-0.08923749625682831,0.08071249723434448
1752154086540683000,5.13868310546875,-0.10119999945163727,-0.04441250115633011,0.09459999948740005
1752154086550536200,5.1485361328125,-0.10436250269412994,-0.06998749822378159,0.12759999930858612
1752154086560390000,5.158389892578125,-0.10656250268220901,-0.003987499978393316,0.1350249946117401
1752154086570243300,5.168243408203125,-0.11288750171661377,-0.07108750194311142,0.1531749963760376
1752154086580096500,5.178096435546875,-0.10862500220537186,-0.05403750017285347,0.16376249492168427
1752154086589950200,5.1879501953125,-0.1214125007390976,-0.0966624990105629,0.17022499442100525
1752154086599803600,5.1978037109375,-0.1373624950647354,-0.08071249723434448,0.1574375033378601
1752154086609657000,5.207656982421875,-0.1564749926328659,-0.14877499639987946,0.1467124968767166
1752154086619510500,5.217510498046875,-0.16499999165534973,-0.14561249315738678,0.12333749979734421
1752154086629364000,5.227364013671875,-0.18095000088214874,-0.1775124967098236,0.11591249704360962
1752154086639217400,5.237217529296875,-0.18851250410079956,-0.15193749964237213,0.0882750004529953
1752154086649070600,5.247070556640625,-0.20336249470710754,-0.1891999989748001,0.08401250094175339
1752154086658924300,5.25692431640625,-0.20652499794960022,-0.16266250610351562,0.07328750193119049
1752154086668777500,5.266777587890625,-0.2204124927520752,-0.15839999914169312,0.08291249722242355
1752154086678631000,5.276630859375,-0.23003749549388885,-0.11151249706745148,0.07122500240802765
1752154086688484400,5.286484375,-0.2512125074863434,-0.12856249511241913,0.07644999772310257
1752154086698337800,5.296337890625,-0.2619374990463257,-0.12856249511241913,0.08071249723434448
1752154086708191200,5.306191162109375,-0.28847500681877136,-0.1391499936580658,0.09253749996423721
1752154086718044700,5.316044677734375,-0.3097875118255615,-0.11783749610185623,0.08401250094175339
1752154086727898000,5.325898193359375,-0.3310999870300293,-0.1317249983549118,0.0882750004529953
1752154086737751600,5.33575146484375,-0.34595000743865967,-0.1317249983549118,0.07012499868869781
1752154086747605000,5.34560498046875,-0.35667499899864197,-0.13062499463558197,0.036024998873472214
1752154086757458700,5.355458740234375,-0.38005000352859497,-0.1317249983549118,0.004124999977648258
1752154086767312000,5.365311767578125,-0.3917374908924103,-0.13708749413490295,-0.02667500078678131
1752154086777165600,5.37516552734375,-0.40232500433921814,-0.16266250610351562,-0.030937500298023224
1752154086787018800,5.385018798828125,-0.40232500433921814,-0.14561249315738678,-0.04688749834895134
1752154086796872200,5.3948720703125,-0.403425008058548,-0.17434999346733093,-0.04908749833703041
1752154086806725600,5.4047255859375,-0.3863750100135803,-0.1541374921798706,-0.06283749639987946
1752154086816579000,5.4145791015625,-0.3735874891281128,-0.17104999721050262,-0.056512501090765
1752154086826432500,5.4244326171875,-0.35667499899864197,-0.16266250610351562,-0.03946249932050705
1752154086836286000,5.434285888671875,-0.34168750047683716,-0.16692499816417694,-0.005499999970197678
1752154086846139400,5.444139404296875,-0.32999998331069946,-0.12209999561309814,0.027499999850988388
1752154086855992800,5.453992919921875,-0.32257500290870667,-0.09446249902248383,0.04455000162124634
1752154086865846300,5.46384619140625,-0.31404998898506165,-0.10615000128746033,0.05197500064969063
1752154086875699700,5.47369970703125,-0.30346250534057617,-0.0966624990105629,0.04028749838471413
1752154086885553200,5.48355322265625,-0.29163751006126404,-0.13062499463558197,0.04675000160932541
1752154086895406600,5.493406494140625,-0.2778874933719635,-0.13598750531673431,0.021175000816583633
1752154086905260000,5.503260009765625,-0.2523125112056732,-0.20295000076293945,0.027499999850988388
1752154086915113500,5.513113525390625,-0.24268749356269836,-0.22220000624656677,0.020075000822544098
1752154086924967000,5.522966796875,-0.2320999950170517,-0.25093749165534973,0.006324999965727329
1752154086934820600,5.532820556640625,-0.22577500343322754,-0.25519999861717224,-0.01924999989569187
1752154086944673800,5.542673828125,-0.22673749923706055,-0.25946250557899475,-0.04262499883770943
1752154086954527200,5.55252734375,-0.22783750295639038,-0.2913624942302704,-0.04908749833703041
1752154086964381000,5.562380859375,-0.22783750295639038,-0.2849000096321106,-0.07136250287294388
1752154086974234400,5.572234375,-0.2204124927520752,-0.32010000944137573,-0.06710000336170197
1752154086984087600,5.582087646484375,-0.20446249842643738,-0.3041499853134155,-0.06187500059604645
1752154086993941200,5.591941162109375,-0.18741250038146973,-0.27541249990463257,-0.05857500061392784
1752154087003794400,5.60179443359375,-0.1714625060558319,-0.24447499215602875,-0.040562499314546585
1752154087013648000,5.61164794921875,-0.1597750037908554,-0.19552500545978546,-0.030937500298023224
1752154087023501300,5.621501220703125,-0.14698749780654907,-0.1742125004529953,-0.002199999988079071
1752154087033355000,5.63135498046875,-0.14272500574588776,-0.09982500225305557,-0.004399999976158142
1752154087043208200,5.641208251953125,-0.1438249945640564,-0.09336250275373459,-0.004399999976158142
1752154087053061600,5.6510615234375,-0.14698749780654907,-0.10298749804496765,-0.0032999999821186066
1752154087062915300,5.660915283203125,-0.13626250624656677,-0.06998749822378159,-0.018149999901652336
1752154087072768500,5.6707685546875,-0.12031249701976776,-0.08167500048875809,-0.018149999901652336
1752154087082622000,5.6806220703125,-0.09487500041723251,-0.0625625029206276,-0.03946249932050705
1752154087092475600,5.6904755859375,-0.07246249914169312,-0.06146249920129776,-0.04166249930858612
1752154087102328800,5.700328857421875,-0.05967500060796738,-0.05719999969005585,-0.04908749833703041
1752154087112182500,5.7101826171875,-0.04262499883770943,-0.07851249724626541,-0.07246249914169312
1752154087122036000,5.720035888671875,-0.025575000792741776,-0.11893749982118607,-0.06503749638795853
1752154087131889400,5.729889404296875,-0.012924999929964542,-0.0742499977350235,-0.08208750188350677
1752154087141742800,5.739742919921875,-0.002199999988079071,-0.052937500178813934,-0.055412501096725464
1752154087151596300,5.74959619140625,0.008387500420212746,-0.02419999986886978,-0.04166249930858612
1752154087161449700,5.75944970703125,0.020075000822544098,0.06201250106096268,-0.0340999998152256
1752154087171303200,5.76930322265625,0.0317624993622303,0.06311249732971191,-0.011824999935925007
1752154087181156600,5.779156494140625,0.05101250112056732,0.11522500216960907,-0.028875000774860382
1752154087191010000,5.789010009765625,0.06476250290870667,0.12155000120401382,-0.016087500378489494
1752154087200863500,5.798863525390625,0.07438749819993973,0.11522500216960907,-0.023512499406933784
1752154087210717000,5.808717041015625,0.06476250290870667,0.03753750026226044,-0.023512499406933784
1752154087220570400,5.8185703125,0.049912501126527786,-0.060362499207258224,-0.012924999929964542
1752154087230423800,5.828423828125,0.03712499886751175,-0.06888750195503235,-0.023512499406933784
1752154087240277200,5.83827734375,0.03712499886751175,-0.15936249494552612,-0.009624999947845936
1752154087250130700,5.848130615234375,0.049912501126527786,-0.14657500386238098,-0.04166249930858612
1752154087259984100,5.857984130859375,0.07328750193119049,-0.14121249318122864,-0.0448249988257885
1752154087269837800,5.867837890625,0.10106249898672104,-0.13598750531673431,-0.040562499314546585
1752154087279691300,5.877691162109375,0.11371249705553055,-0.13062499463558197,-0.016087500378489494
1752154087289544400,5.88754443359375,0.11797499656677246,-0.11577499657869339,0.032862499356269836
1752154087299398100,5.897398193359375,0.09679999947547913,-0.1050499975681305,0.0882750004529953
1752154087309251300,5.907251220703125,0.07012499868869781,-0.18067499995231628,0.15427500009536743
1752154087319104800,5.917104736328125,0.06159999966621399,-0.18809999525547028,0.20418749749660492
1752154087328958500,5.92695849609375,0.04881250113248825,-0.08167500048875809,0.22769999504089355
1752154087338811600,5.936811767578125,0.0317624993622303,-0.13062499463558197,0.23196250200271606
1752154087348665000,5.9466650390625,0.01691249944269657,-0.008249999955296516,0.1839749962091446
1752154087358518800,5.956518798828125,0.007287499960511923,0.057750001549720764,0.19470000267028809
1752154087368372200,5.966372314453125,-0.018149999901652336,0.14506250619888306,0.1531749963760376
1752154087378225700,5.9762255859375,-0.02241249941289425,0.1769624948501587,0.0999625027179718
1752154087388079000,5.9860791015625,-0.056512501090765,0.19071249663829803,0.0658624991774559
1752154087397932500,5.9959326171875,-0.07039999961853027,0.1280124932527542,0.06806249916553497
1752154087407786000,6.005785888671875,-0.07672499865293503,0.029012499377131462,0.0424874983727932
1752154087417639400,6.015639404296875,-0.05224999785423279,0.04179999977350235,-0.002199999988079071
1752154087427492900,6.025492919921875,-0.05004999786615372,-0.02736249938607216,-0.002199999988079071
1752154087437346300,6.03534619140625,-0.020349999889731407,-0.06462500244379044,-0.04166249930858612
1752154087447200000,6.045199951171875,0.028599999845027924,-0.04221250116825104,-0.05967500060796738
1752154087457053200,6.05505322265625,0.0541750006377697,0.0034374999813735485,-0.08524999767541885
1752154087466906600,6.06490673828125,0.06379999965429306,-0.05926249921321869,-0.06710000336170197
1752154087476760300,6.07476025390625,0.06696250289678574,-0.08277499675750732,-0.04166249930858612
1752154087486613800,6.08461376953125,0.05843750014901161,-0.0518375001847744,-0.006462499964982271
1752154087496467000,6.094467041015625,0.06902500241994858,-0.04867500066757202,0.025437500327825546
1752154087506320600,6.104320556640625,0.08717499673366547,0.008799999952316284,0.015812499448657036
1752154087516174000,6.114174072265625,0.11055000126361847,0.03973750025033951,0.008387500420212746
1752154087526027500,6.124027587890625,0.11591249704360962,0.06091250106692314,-0.008662499487400055
1752154087535881000,6.133880859375,0.11701250076293945,0.03863750025629997,-0.030937500298023224
1752154087545734400,6.143734375,0.12759999930858612,0.055687498301267624,-0.047987498342990875
1752154087555587800,6.153587890625,0.14354999363422394,0.03437500074505806,-0.03629999980330467
1752154087565441500,6.163441650390625,0.16266250610351562,-0.03478749841451645,-0.020349999889731407
1752154087575294700,6.173294677734375,0.1765500009059906,-0.03382499888539314,-0.014987500384449959
1752154087585148200,6.183148193359375,0.16692499816417694,0.031212499365210533,-0.030937500298023224
1752154087595001900,6.193001953125,0.15427500009536743,-0.010312499478459358,-0.03946249932050705
1752154087604855000,6.20285498046875,0.1457500010728836,-0.05829999968409538,-0.05335000157356262
1752154087614708700,6.212708740234375,0.1116499975323677,-0.06572499871253967,-0.05224999785423279
1752154087624562200,6.222562255859375,0.0658624991774559,-0.07631249725818634,-0.045787498354911804
1752154087634415600,6.23241552734375,0.010587500408291817,-0.14863750338554382,-0.02983750030398369
1752154087644268800,6.242268798828125,-0.04372499883174896,-0.1050499975681305,-0.033137500286102295
1752154087654122500,6.25212255859375,-0.09487500041723251,-0.04647500067949295,-0.056512501090765
1752154087663976000,6.261975830078125,-0.12251249700784683,0.0034374999813735485,-0.10119999945163727
1752154087673829400,6.271829345703125,-0.13529999554157257,0.03437500074505806,-0.16830000281333923
1752154087683683000,6.28168310546875,-0.13199999928474426,0.07369999587535858,-0.2172500044107437
1752154087703389700,6.3013896484375,-0.08841250091791153,0.055687498301267624,-0.21504999697208405
1752154087713243400,6.311243408203125,-0.04262499883770943,0.10037499666213989,-0.14272500574588776
1752154087723096800,6.321096923828125,-0.010724999941885471,0.1396999955177307,-0.07026249915361404
1752154087732950300,6.3309501953125,0.030799999833106995,0.1237500011920929,0.011549999937415123
1752154087742803700,6.3408037109375,0.049912501126527786,0.1695374995470047,0.032862499356269836
1752154087752657200,6.3506572265625,0.08607500046491623,0.20253749191761017,0.0658624991774559
1752154087762510300,6.36051025390625,0.12333749979734421,0.1929125040769577,0.09143749624490738
1752154087772364000,6.370364013671875,0.16060000658035278,0.24076250195503235,0.11701250076293945
1752154087782217500,6.380217529296875,0.18713749945163727,0.2227499932050705,0.1531749963760376
1752154087792071000,6.39007080078125,0.1691250056028366,0.18548749387264252,0.18713749945163727
1752154087801924600,6.399924560546875,0.1467124968767166,0.042899999767541885,0.23938749730587006
1752154087811777800,6.40977783203125,0.11481250077486038,0.01732499897480011,0.2521750032901764
1752154087821631200,6.41963134765625,0.10202500224113464,0.06833750009536743,0.23086249828338623
1752154087831485000,6.42948486328125,0.0882750004529953,0.06421250104904175,0.18713749945163727
1752154087841338400,6.43933837890625,0.060499999672174454,0.08016250282526016,0.11371249705553055
1752154087851191600,6.449191650390625,0.03506249934434891,0.031212499365210533,0.06159999966621399
1752154087861045200,6.459045166015625,0.009487500414252281,-0.026262499392032623,0.01484999991953373
1752154087870898700,6.468898681640625,-0.03203750029206276,-0.03162499889731407,-0.02241249941289425
1752154087880752000,6.478752197265625,-0.05335000157356262,-0.08057499676942825,-0.028875000774860382
1752154087890605600,6.48860546875,-0.1023000031709671,-0.06668750196695328,-0.06613750010728836
1752154087900459000,6.498458984375,-0.15441249310970306,-0.0518375001847744,-0.0906125009059906
1752154087910312400,6.5083125,-0.17572499811649323,-0.0976250022649765,-0.11082500219345093
1752154087920166100,6.518166259765625,-0.2087250053882599,0.013062499463558197,-0.1564749926328659
1752154087930019300,6.528019287109375,-0.22673749923706055,-0.01993750035762787,-0.15867500007152557
1752154087939872800,6.537872802734375,-0.24598750472068787,-0.07631249725818634,-0.15015000104904175
1752154087949726500,6.5477265625,-0.27678748965263367,-0.07315000146627426,-0.13956250250339508
1752154087959580000,6.557579833984375,-0.27568748593330383,-0.16458749771118164,-0.0989999994635582
1752154087969433300,6.567433349609375,-0.259737491607666,-0.1358499974012375,-0.07136250287294388
1752154087979286800,6.577286865234375,-0.21821250021457672,-0.021037500351667404,-0.05431250110268593
1752154087989140200,6.58714013671875,-0.15441249310970306,0.0034374999813735485,-0.023512499406933784
1752154087998993700,6.59699365234375,-0.11082500219345093,-0.017737500369548798,-0.007562499959021807
1752154088008847000,6.60684716796875,-0.0873124971985817,0.06943749636411667,-0.005362499970942736
1752154088018700500,6.616700439453125,-0.055412501096725464,0.059950001537799835,0.012649999931454659
1752154088028554200,6.62655419921875,-0.0340999998152256,0.09927500039339066,0.012649999931454659
1752154088038407700,6.63640771484375,-0.03203750029206276,0.12691250443458557,0.009487500414252281
1752154088048260900,6.6462607421875,-0.013887500390410423,0.04179999977350235,0.026537500321865082
1752154088058114600,6.656114501953125,-0.01718750037252903,-0.01677500084042549,0.038224998861551285
1752154088067968000,6.665968017578125,-0.033137500286102295,-0.017737500369548798,0.038224998861551285
1752154088077821400,6.675821533203125,-0.02241249941289425,-0.09226249903440475,0.025437500327825546
1752154088087675000,6.6856748046875,-0.01718750037252903,-0.11893749982118607,0.010587500408291817
1752154088097528300,6.6955283203125,-0.004399999976158142,-0.0859375,0.0031624999828636646
1752154088107381800,6.7053818359375,0.012649999931454659,-0.1093124970793724,0.020075000822544098
1752154088117235500,6.7152353515625,0.013749999925494194,-0.08799999952316284,0.04028749838471413
1752154088127089000,6.7250888671875,-0.013887500390410423,0.0471624992787838,0.04028749838471413
1752154088136942000,6.734942138671875,-0.02667500078678131,0.12911249697208405,0.03506249934434891
1752154088146795500,6.74479541015625,-0.05115000158548355,0.1929125040769577,0.012649999931454659
1752154088156649200,6.754649169921875,-0.10009999573230743,0.2546499967575073,-0.021312499418854713
1752154088166502700,6.764502685546875,-0.13199999928474426,0.21848750114440918,-0.027775000780820847
1752154088176356000,6.774356201171875,-0.1405249983072281,0.07369999587535858,0.007424999959766865
1752154088186209500,6.78420947265625,-0.17998750507831573,0.027912499383091927,0.01691249944269657
1752154088196063000,6.79406298828125,-0.20446249842643738,-0.011412499472498894,0.020075000822544098
1752154088205916400,6.80391650390625,-0.20019999146461487,-0.08167500048875809,0.023375000804662704
1752154088215770000,6.81377001953125,-0.19167499244213104,-0.052937500178813934,0.018012499436736107
1752154088225623600,6.82362353515625,-0.16499999165534973,0.05238749831914902,0.0031624999828636646
1752154088235476700,6.833476806640625,-0.14588749408721924,0.1311749964952469,0.006324999965727329
1752154088245330400,6.843330322265625,-0.1256749927997589,0.1578499972820282,0.03932499885559082
1752154088255184000,6.853183837890625,-0.13199999928474426,0.2620750069618225,0.10848750174045563
1752154088265037600,6.86303759765625,-0.13529999554157257,0.3312374949455261,0.1989624947309494
1752154088274890800,6.872890869140625,-0.15757499635219574,0.29727500677108765,0.2670249938964844
1752154088284744200,6.882744140625,-0.18851250410079956,0.3834874927997589,0.30002498626708984
1752154088294597600,6.89259765625,-0.22247499227523804,0.4450874924659729,0.32023748755455017
1752154088304451300,6.902451416015625,-0.2576749920845032,0.4142875075340271,0.3723500072956085
1752154088314304800,6.9123046875,-0.2639999985694885,0.4324375092983246,0.4203374981880188
1752154088324158200,6.922158203125,-0.24172499775886536,0.5377625226974487,0.4468750059604645
1752154088334011600,6.93201171875,-0.18947499990463257,0.6654999852180481,0.4904625117778778
1752154088343865000,6.941864990234375,-0.13846249878406525,0.7079874873161316,0.5618249773979187
1752154088353718500,6.951718505859375,-0.11508750170469284,0.778249979019165,0.6161375045776367
1752154088363572200,6.961572265625,-0.11288750171661377,0.8080874681472778,0.6171000003814697
1752154088373425400,6.97142529296875,-0.13199999928474426,0.7452499866485596,0.5607249736785889
1752154088383279000,6.981279052734375,-0.15757499635219574,0.6494125127792358,0.4692874848842621
1752154088393132500,6.991132568359375,-0.17668749392032623,0.5750250220298767,0.367125004529953
1752154088402985700,7.00098583984375,-0.18205000460147858,0.4483875036239624,0.28833749890327454
1752154088412839400,7.01083935546875,-0.16830000281333923,0.2387000024318695,0.23086249828338623
1752154088422692900,7.02069287109375,-0.14588749408721924,0.11096250265836716,0.15427500009536743
1752154088432546300,7.03054638671875,-0.10752499848604202,0.027912499383091927,0.06806249916553497
1752154088442399700,7.040399658203125,-0.05431250110268593,-0.09226249903440475,-0.020349999889731407
1752154088452253200,7.050253173828125,-0.006462499964982271,-0.17311249673366547,-0.14588749408721924
1752154088462106600,7.060106689453125,0.008387500420212746,-0.11563749611377716,-0.34485000371932983
1752154088471960300,7.069960205078125,0.04358749836683273,-0.2667500078678131,-0.5119125247001648
1752154088481813800,7.079813720703125,0.055275000631809235,-0.3722124993801117,-0.7002875208854675
1752154088491667200,7.089667236328125,0.03506249934434891,-0.3987500071525574,-0.8951249718666077
1752154088501520600,7.099520751953125,0.03932499885559082,-0.5285499691963196,-1.0696125030517578
1752154088511374000,7.1093740234375,0.028599999845027924,-0.5774999856948853,-1.272837519645691
1752154088521227500,7.1192275390625,0.027637500315904617,-0.6881874799728394,-1.4739999771118164
1752154088531081000,7.1290810546875,0.04138749837875366,-0.8830249905586243,-1.6378999948501587
1752154088540934400,7.138934326171875,0.025437500327825546,-1.017087459564209,-1.700737476348877
1752154088550787800,7.148787841796875,0.008387500420212746,-1.0458250045776367,-1.5548499822616577
1752154088560641500,7.1586416015625,-0.04908749833703041,-0.9372000098228455,-1.2505625486373901
1752154088570495000,7.168494873046875,-0.1970375031232834,-0.72861248254776,-0.8695499897003174
1752154088580348400,7.178348388671875,-0.36932501196861267,-0.5253875255584717,-0.5439500212669373
1752154088590201900,7.188201904296875,-0.4768500030040741,-0.3870624899864197,-0.5502749681472778
1752154088600055300,7.19805517578125,-0.4045250117778778,-0.439175009727478,-0.6843374967575073
1752154088609908700,7.20790869140625,-0.3320625126361847,-0.27953749895095825,-0.5471125245094299
1752154088619762400,7.217762451171875,-0.2204124927520752,0.19827499985694885,-0.16499999165534973
1752154088629615900,7.227615966796875,-0.11715000122785568,0.5856124758720398,0.37345001101493835
1752154088639469300,7.23746923828125,-0.1214125007390976,0.9686874747276306,0.809737503528595
1752154088649322800,7.24732275390625,-0.2129874974489212,1.1231000423431396,1.1119624376296997
1752154088659176200,7.25717626953125,-0.3320625126361847,1.1644874811172485,1.2726999521255493
1752154088669029600,7.267029541015625,-0.36506250500679016,1.1644874811172485,1.284387469291687
1752154088678883300,7.27688330078125,-0.29809999465942383,1.0580625534057617,1.1620124578475952
1752154088688736500,7.286736572265625,-0.2586374878883362,0.9432500004768372,0.9767999649047852
1752154088698590200,7.296590087890625,-0.20542499423027039,0.7793499827384949,0.8065750002861023
1752154088708443600,7.306443603515625,-0.11935000121593475,0.5005000233650208,0.5777750015258789
1752154088718297000,7.316297119140625,-0.12993749976158142,0.295074999332428,0.3011249899864197
1752154088728150500,7.326150634765625,-0.08304999768733978,0.09611249715089798,0.09776250272989273
1752154088738004200,7.336004150390625,-0.08524999767541885,0.05458749830722809,-0.10436250269412994
1752154088747857400,7.345857421875,-0.0448249988257885,-0.0008249999955296516,-0.2554749846458435
1752154088757710800,7.3557109375,0.030799999833106995,-0.10821250081062317,-0.3895374834537506
1752154088767564500,7.365564453125,0.1574375033378601,-0.2657875120639801,-0.4545750021934509
1752154088777417700,7.375417724609375,0.3053874969482422,-0.4573250114917755,-0.5460125207901001
1752154088787271400,7.385271484375,0.4362874925136566,-0.6329125165939331,-0.6439124941825867
1752154088797124900,7.395124755859375,0.5384500026702881,-0.8595125079154968,-0.7290250062942505
1752154088806978300,7.404978271484375,0.613937497138977,-1.127774953842163,-0.6971250176429749
1752154088816832000,7.41483203125,0.6819999814033508,-1.267199993133545,-0.48743748664855957
1752154088826685400,7.424685546875,0.7789375185966492,-1.2788875102996826,-0.008662499487400055
1752154088836538600,7.43453857421875,0.8608874678611755,-1.1702624559402466,0.5043500065803528
1752154088846392300,7.444392333984375,0.866112470626831,-0.8520874977111816,0.8577250242233276
1752154088856245800,7.454245849609375,0.7852625250816345,-0.5860249996185303,0.9513624906539917
1752154088866099200,7.46409912109375,0.6448749899864197,-0.490325003862381,0.8916875123977661
1752154088875952600,7.47395263671875,0.5607249736785889,-0.3040125072002411,0.7512999773025513
1752154088885806000,7.48380615234375,0.4787749946117401,-0.13695000112056732,0.6628875136375427
1752154088895659500,7.493659423828125,0.41923749446868896,-0.09336250275373459,0.651199996471405
1752154088905513000,7.503512939453125,0.3543374836444855,0.006737499963492155,0.6235625147819519
1752154088915366700,7.51336669921875,0.28187498450279236,0.10573749989271164,0.5746124982833862
1752154088925220000,7.52322021484375,0.1872749924659729,0.24722500145435333,0.4320249855518341
1752154088935073500,7.533073486328125,0.10312499850988388,0.3834874927997589,0.26592499017715454
1752154088944927000,7.542927001953125,0.032862499356269836,0.5069624781608582,0.10628750175237656
1752154088954780400,7.552780517578125,-0.020349999889731407,0.5420249700546265,-0.02667500078678131
1752154088964633900,7.5626337890625,-0.025575000792741776,0.3940750062465668,-0.11715000122785568
1752154088974487600,7.572487548828125,-0.0010999999940395355,0.28558748960494995,-0.19910000264644623
1752154088984341000,7.582341064453125,0.02227500081062317,0.11742500215768814,-0.23100000619888306
1752154088994194400,7.5921943359375,0.027637500315904617,0.0705375000834465,-0.2895750105381012
1752154089004048000,7.6020478515625,0.01484999991953373,-0.01347499992698431,-0.3363249897956848
1752154089013901300,7.6119013671875,-0.038362499326467514,-0.030524998903274536,-0.4054875075817108
1752154089023754800,7.621754638671875,-0.08524999767541885,-0.16142499446868896,-0.41084998846054077
1752154089033608400,7.6316083984375,-0.12993749976158142,-0.12416250258684158,-0.4384874999523163
1752154089043461600,7.641461669921875,-0.14588749408721924,-0.10395000129938126,-0.42473748326301575
1752154089053315300,7.6513154296875,-0.13956250250339508,-0.07631249725818634,-0.3735874891281128
1752154089063168800,7.661168701171875,-0.10119999945163727,-0.011412499472498894,-0.28737500309944153
1752154089073022200,7.671022216796875,-0.0448249988257885,0.0035749999806284904,-0.17572499811649323
1752154089082876000,7.6808759765625,0.030799999833106995,0.13021250069141388,-0.0873124971985817
1752154089092729300,7.690729248046875,0.10106249898672104,0.17489999532699585,-0.0170499999076128
1752154089102582800,7.700582763671875,0.14891250431537628,0.3004375100135803,0.007424999959766865
1752154089112436200,7.710436279296875,0.18301250040531158,0.21642500162124634,0.05101250112056732
1752154089122289700,7.72028955078125,0.2180749922990799,0.15674999356269836,0.053075000643730164
1752154089132143000,7.73014306640625,0.25850000977516174,0.08442500233650208,0.09253749996423721
1752154089141996800,7.739996826171875,0.28091248869895935,0.07906249910593033,0.09033749997615814
1752154089151850000,7.74985009765625,0.2829749882221222,0.03231250122189522,0.07548750191926956
1752154089161703700,7.75970361328125,0.27665001153945923,-0.006049999967217445,0.004124999977648258
1752154089171557000,7.76955712890625,0.28517499566078186,0.03231250122189522,-0.06173750013113022
1752154089181410600,7.77941064453125,0.30428749322891235,0.10999999940395355,-0.14698749780654907
1752154089191264300,7.78926416015625,0.33838748931884766,0.08978749811649323,-0.24158750474452972
1752154089201117400,7.799117431640625,0.368087500333786,-0.0028874999843537807,-0.3097875118255615
1752154089210971000,7.808970947265625,0.381974995136261,-0.037950001657009125,-0.3969624936580658
1752154089220824600,7.818824462890625,0.390500009059906,-0.054999999701976776,-0.4885374903678894
1752154089230678000,7.828677978515625,0.37661248445510864,0.022687500342726707,-0.5801125168800354
1752154089240531700,7.83853173828125,0.3255999982357025,-0.07631249725818634,-0.5971624851226807
1752154089250385200,7.84838525390625,0.2638624906539917,-0.17957499623298645,-0.6450124979019165
1752154089260238600,7.858238525390625,0.2149125039577484,-0.14657500386238098,-0.6800749897956848
1752154089270092000,7.868092041015625,0.2032250016927719,0.023787500336766243,-0.7099124789237976
1752154089279945500,7.877945556640625,0.2223374992609024,0.14190000295639038,-0.6769124865531921
1752154089289799200,7.887799072265625,0.23718750476837158,0.2525874972343445,-0.6748499870300293
1752154089299652600,7.897652587890625,0.21175000071525574,0.33137500286102295,-0.7215999960899353
1752154089309506000,7.907506103515625,0.14038750529289246,0.3377000093460083,-0.7844374775886536
1752154089319359700,7.91735986328125,0.07328750193119049,0.3068999946117401,-0.8141375184059143
1752154089329213200,7.927213134765625,-0.014987500384449959,0.23237499594688416,-0.8152375221252441
1752154089339066400,7.93706640625,-0.12993749976158142,0.22921249270439148,-0.8046500086784363
1752154089348920000,7.946920166015625,-0.24914999306201935,0.23553749918937683,-0.7770124673843384
1752154089358773500,7.9567734375,-0.3513124883174896,0.2993375062942505,-0.7588624954223633
1752154089368627000,7.966626953125,-0.4460499882698059,0.3078624904155731,-0.7321875095367432
1752154089378480400,7.97648046875,-0.5152124762535095,0.3100624978542328,-0.6748499870300293
1752154089388334000,7.986333984375,-0.5684249997138977,0.3217499852180481,-0.5992249846458435
1752154089398187300,7.996187255859375,-0.5790125131607056,0.29081249237060547,-0.46626248955726624
1752154089408041000,8.006041015625,-0.5693874955177307,0.2887499928474426,-0.30758750438690186
1752154089417894400,8.015894287109376,-0.5141124725341797,0.15468749403953552,-0.10546249896287918
1752154089427747800,8.025747802734376,-0.4512749910354614,0.04606249928474426,0.06270000338554382
1752154089437601300,8.035601318359374,-0.40136250853538513,-0.0518375001847744,0.20845000445842743
1752154089447454700,8.045454833984374,-0.36410000920295715,-0.08167500048875809,0.3255999982357025
1752154089457308200,8.05530810546875,-0.3161124885082245,-0.14657500386238098,0.43408748507499695
1752154089467161900,8.065161865234375,-0.25341248512268066,-0.1816374957561493,0.5171374678611755
1752154089477015300,8.075015380859375,-0.24268749356269836,-0.2508000135421753,0.5894625186920166
1752154089486868700,8.08486865234375,-0.2246749997138977,-0.3497999906539917,0.6437749862670898
1752154089496722400,8.094722412109375,-0.19277499616146088,-0.42006251215934753,0.6703125238418579
1752154089506575600,8.10457568359375,-0.13199999928474426,-0.3774375021457672,0.6905249953269958
1752154089516429000,8.114428955078125,-0.07246249914169312,-0.28696250915527344,0.6916249990463257
1752154089526282500,8.124282470703125,-0.020349999889731407,-0.19126249849796295,0.7075750231742859
1752154089536136200,8.13413623046875,0.005224999971687794,-0.09226249903440475,0.7044125199317932
1752154089545989600,8.14398974609375,0.03506249934434891,0.07479999959468842,0.6852999925613403
1752154089555843300,8.15384326171875,0.05637500062584877,0.24296249449253082,0.6298875212669373
1752154089565696800,8.16369677734375,0.08511249721050262,0.23553749918937683,0.5831375122070312
1752154089575550000,8.173550048828124,0.10628750175237656,0.14300000667572021,0.5288249850273132
1752154089585403600,8.183403564453124,0.12127500027418137,0.0002749999985098839,0.4926624894142151
1752154089595257000,8.193257080078125,0.10958749800920486,-0.13695000112056732,0.4468750059604645
1752154089605110500,8.203110595703125,0.09886249899864197,-0.2806375026702881,0.4096125066280365
1752154089614964200,8.212964111328125,0.07438749819993973,-0.36781248450279236,0.37564998865127563
1752154089624817400,8.2228173828125,0.06159999966621399,-0.3433375060558319,0.33838748931884766
1752154089634670800,8.2326708984375,0.038224998861551285,-0.2529999911785126,0.2670249938964844
1752154089644524500,8.242524658203125,0.032862499356269836,-0.20074999332427979,0.19786250591278076
1752154089654378000,8.2523779296875,0.018012499436736107,-0.21463750302791595,0.1765500009059906
1752154089664231400,8.2622314453125,-0.00013749999925494194,-0.2040500044822693,0.1839749962091446
1752154089674085000,8.272085205078126,-0.008662499487400055,-0.18383750319480896,0.19359999895095825
1752154089683938600,8.2819384765625,0.0031624999828636646,-0.16568750143051147,0.17971250414848328
1752154089693792000,8.2917919921875,0.026537500321865082,-0.12209999561309814,0.16279999911785126
1752154089703645400,8.3016455078125,0.03396249935030937,-0.054999999701976776,0.12870000302791595
1752154089713499000,8.311498779296874,0.03932499885559082,-0.017737500369548798,0.08937499672174454
1752154089723352600,8.3213525390625,0.015812499448657036,0.06311249732971191,0.004124999977648258
1752154089733206000,8.3312060546875,0.0031624999828636646,0.055687498301267624,-0.07452499866485596
1752154089743059500,8.3410595703125,-0.02241249941289425,0.08758749812841415,-0.15015000104904175
1752154089752913000,8.350912841796875,-0.040562499314546585,0.06737499684095383,-0.20446249842643738
1752154089762766300,8.360766357421875,-0.07452499866485596,0.033275000751018524,-0.25657498836517334
1752154089772620300,8.370620361328125,-0.11604999750852585,-0.003987499978393316,-0.28421249985694885
1752154089782473500,8.380473388671875,-0.14588749408721924,0.05884999781847,-0.3097875118255615
1752154089792327000,8.390326904296876,-0.16403749585151672,0.08016250282526016,-0.3151499927043915
1752154089802180600,8.4001806640625,-0.18095000088214874,0.07479999959468842,-0.32257500290870667
1752154089812033800,8.41003369140625,-0.20336249470710754,0.0035749999806284904,-0.28847500681877136
1752154089821887200,8.41988720703125,-0.22893749177455902,-0.0028874999843537807,-0.26083749532699585
1752154089831741000,8.429740966796874,-0.22357499599456787,-0.06462500244379044,-0.23100000619888306
1752154089841594400,8.439594482421874,-0.2129874974489212,-0.06132499873638153,-0.21504999697208405
1752154089851447800,8.44944775390625,-0.18521249294281006,-0.028462499380111694,-0.15331250429153442
1752154089861301500,8.459301513671875,-0.1564749926328659,0.008799999952316284,-0.10656250268220901
1752154089871155000,8.469155029296875,-0.1214125007390976,0.0035749999806284904,-0.0681999996304512
1752154089881008400,8.47900830078125,-0.08951249718666077,0.08442500233650208,-0.06393750011920929
1752154089890861800,8.48886181640625,-0.06613750010728836,0.1886499971151352,-0.08098749816417694
1752154089900715300,8.49871533203125,-0.056512501090765,0.2919124960899353,-0.1097249984741211
1752154089910568700,8.508568603515625,-0.055412501096725464,0.30153748393058777,-0.1288374960422516
1752154089920422400,8.51842236328125,-0.03203750029206276,0.2387000024318695,-0.11824999749660492
1752154089930275800,8.52827587890625,-0.025575000792741776,0.22811250388622284,-0.10326249897480011
1752154089940129300,8.53812939453125,-0.011824999935925007,0.13763749599456787,-0.07026249915361404
1752154089949982700,8.547982666015624,-0.004399999976158142,0.00989999994635582,-0.01924999989569187
1752154089959836200,8.557836181640624,-0.0010999999940395355,-0.08896250277757645,0.04881250113248825
1752154089969690000,8.567690185546875,-0.0032999999821186066,-0.12526249885559082,0.07975000143051147
1752154089979543300,8.577543212890625,-0.013887500390410423,-0.20184999704360962,0.08511249721050262
1752154089989396700,8.587396728515625,-0.0340999998152256,-0.24227499961853027,0.07122500240802765
1752154089999250200,8.597250244140625,-0.047987498342990875,-0.14863750338554382,0.07864999771118164
1752154090009103600,8.607103515625,-0.040562499314546585,-0.03368749842047691,0.09776250272989273
1752154090018957000,8.61695703125,-0.04262499883770943,0.07699999958276749,0.11481250077486038
1752154090028810800,8.626810791015625,-0.008662499487400055,0.08978749811649323,0.11275000125169754
1752154090038664200,8.636664306640625,0.005224999971687794,0.11948750168085098,0.10312499850988388
1752154090048517600,8.646517578125,0.027637500315904617,0.07383749634027481,0.12759999930858612
1752154090058371300,8.656371337890626,0.047849997878074646,0.03657500073313713,0.14781250059604645
1752154090068224500,8.666224609375,0.07548750191926956,-0.035887498408555984,0.19043749570846558
1752154090078078000,8.676077880859374,0.08923749625682831,-0.10821250081062317,0.22866250574588776
1752154090087931600,8.685931640625,0.10848750174045563,-0.2157374918460846,0.2798124849796295
1752154090097785000,8.69578515625,0.12017499655485153,-0.25189998745918274,0.28517499566078186
1752154090107638500,8.705638427734375,0.10422500222921371,-0.15070000290870667,0.2457125037908554
1752154090117492200,8.7154921875,0.06063750013709068,-0.05073750019073486,0.1765500009059906
1752154090127345400,8.725345458984375,-0.0010999999940395355,-0.00494999997317791,0.09253749996423721
1752154090137199000,8.73519921875,-0.028875000774860382,0.03437500074505806,0.030799999833106995
1752154090147052500,8.745052490234375,-0.07672499865293503,0.06737499684095383,-0.02667500078678131
1752154090156906000,8.754906005859375,-0.10119999945163727,0.01952499896287918,-0.05004999786615372
1752154090166759700,8.764759765625,-0.10656250268220901,-0.035887498408555984,-0.06173750013113022
1752154090176613000,8.774613037109376,-0.06503749638795853,0.0004124999977648258,-0.06173750013113022
1752154090186466600,8.784466552734376,0.005224999971687794,-0.017737500369548798,-0.040562499314546585
1752154090196320000,8.794320068359376,0.06476250290870667,0.02488750033080578,-0.010724999941885471
1752154090206173400,8.80417333984375,0.1424500048160553,-0.023099999874830246,0.03189999982714653
1752154090216027000,8.81402685546875,0.1956624984741211,0.03341250121593475,0.049912501126527786
1752154090225880600,8.823880615234375,0.25533750653266907,-0.01979999989271164,0.08084999769926071
1752154090235734000,8.833734130859375,0.29260000586509705,0.01952499896287918,0.09253749996423721
1752154090245587700,8.843587646484375,0.27871251106262207,0.17173749208450317,0.09569999575614929
1752154090255441200,8.853441162109375,0.23292499780654907,0.340862512588501,0.07232499867677689
1752154090265294300,8.86329443359375,0.15633749961853027,0.38885000348091125,0.02227500081062317
1752154090275148000,8.87314794921875,0.07328750193119049,0.3004375100135803,-0.014987500384449959
1752154090285001500,8.88300146484375,-0.03946249932050705,0.23663750290870667,-0.047987498342990875
1752154090294855000,8.89285498046875,-0.0989999994635582,0.09184999763965607,-0.032999999821186066
1752154090304708600,8.90270849609375,-0.14698749780654907,0.02694999985396862,-0.02983750030398369
1752154090314562000,8.91256201171875,-0.1555124968290329,-0.08153750002384186,-0.014987500384449959
1752154090324415500,8.92241552734375,-0.13956250250339508,-0.15716250240802765,0.015949999913573265
1752154090334269000,8.93226904296875,-0.09473749995231628,-0.2316875010728836,0.02227500081062317
1752154090344122400,8.942122314453124,-0.03519999980926514,-0.27953749895095825,-0.021312499418854713
1752154090353975800,8.951975830078124,-0.05224999785423279,-0.17201249301433563,-0.09047500044107437
1752154090363829500,8.96182958984375,-0.05115000158548355,-0.11769999563694,-0.1288374960422516
1752154090373683000,8.971682861328125,-0.055412501096725464,0.03863750025629997,-0.1639000028371811
1752154090383536600,8.98153662109375,-0.047987498342990875,0.19085000455379486,-0.17778749763965607
1752154090393389800,8.991389892578125,-0.04688749834895134,0.26221248507499695,-0.1671999990940094
1752154090403243300,9.0012431640625,-0.05224999785423279,0.2536875009536743,-0.1214125007390976
1752154090413097000,9.011096923828125,-0.010724999941885471,0.12484999746084213,-0.009624999947845936
1752154090422950400,9.020950439453125,-0.0032999999821186066,0.10999999940395355,0.08084999769926071
1752154090432803800,9.030803955078126,0.047849997878074646,-0.07204999774694443,0.19580000638961792
1752154090442657500,9.040657470703126,0.06696250289678574,-0.18906250596046448,0.2564375102519989
1752154090452510700,9.0505107421875,0.06696250289678574,-0.19965000450611115,0.2404875010251999
1752154090462364200,9.0603642578125,0.06270000338554382,-0.27527499198913574,0.19043749570846558
1752154090472217900,9.0702177734375,0.018012499436736107,-0.16568750143051147,0.07975000143051147
1752154090482071300,9.0800712890625,-0.0010999999940395355,-0.08057499676942825,0.0009624999947845936
1752154090491924700,9.0899248046875,-0.04262499883770943,0.06201250106096268,-0.05004999786615372
1752154090501778400,9.0997783203125,-0.05224999785423279,0.1280124932527542,-0.04372499883174896
1752154090511632000,9.1096318359375,-0.04152499884366989,0.11742500215768814,0.01691249944269657
1752154090521485300,9.1194853515625,-0.038362499326467514,0.16321249306201935,0.07438749819993973
1752154090531338800,9.1293388671875,-0.0010999999940395355,0.06627500057220459,0.15001249313354492
1752154090541192200,9.139192138671875,0.03189999982714653,0.03341250121593475,0.13296249508857727
1752154090551045600,9.149045654296875,0.06063750013709068,0.0705375000834465,0.08607500046491623
1752154090560899300,9.1588994140625,0.10106249898672104,0.048262499272823334,0.04675000160932541
1752154090570752800,9.168752685546876,0.08401250094175339,0.09927500039339066,-0.010724999941885471
1752154090580606200,9.178606201171876,0.06476250290870667,0.05884999781847,-0.045787498354911804
1752154090590459600,9.188459716796874,-0.0170499999076128,0.0695749968290329,-0.07878749817609787
1752154090600313000,9.19831298828125,-0.08098749816417694,-0.015675000846385956,-0.05431250110268593
1752154090610166800,9.208166748046875,-0.1373624950647354,-0.11783749610185623,-0.00013749999925494194
1752154090620020200,9.218020263671875,-0.20652499794960022,-0.025162499397993088,0.025437500327825546
1752154090629873700,9.227873779296875,-0.2256374955177307,-0.09968750178813934,0.07122500240802765
1752154090639727400,9.237727294921875,-0.23952500522136688,-0.06132499873638153,0.07328750193119049
1752154090649580800,9.247580810546875,-0.2213750034570694,-0.00494999997317791,0.05101250112056732
1752154090659434500,9.2574345703125,-0.16926249861717224,-0.0411125011742115,-0.002199999988079071
1752154090669287700,9.26728759765625,-0.15125000476837158,-0.04647500067949295,-0.09047500044107437
1752154090679141000,9.27714111328125,-0.11921250075101852,-0.08373750001192093,-0.14588749408721924
1752154090688994600,9.28699462890625,-0.08951249718666077,-0.060362499207258224,-0.14904999732971191
1752154090698848300,9.29684814453125,-0.057612501084804535,-0.060362499207258224,-0.09803749620914459
1752154090708701700,9.30670166015625,-0.02241249941289425,-0.09748750180006027,0.002062499988824129
1752154090718555100,9.31655517578125,-0.033137500286102295,0.035475000739097595,0.0648999959230423
1752154090728408600,9.32640869140625,-0.02983750030398369,0.021587500348687172,0.1297999918460846
1752154090738262000,9.336261962890624,-0.0340999998152256,0.05884999781847,0.1350249946117401
1752154090748115500,9.346115478515625,-0.045787498354911804,0.14506250619888306,0.08607500046491623
1752154090757969200,9.35596923828125,-0.045787498354911804,0.06201250106096268,0.0424874983727932
1752154090767822600,9.365822509765625,-0.07026249915361404,0.0004124999977648258,-0.025575000792741776
1752154090777676000,9.375676025390625,-0.0873124971985817,-0.014574999921023846,-0.06599999964237213
1752154090787529500,9.385529541015625,-0.08098749816417694,-0.054999999701976776,-0.07782500237226486
1752154090797383200,9.395383056640625,-0.08098749816417694,-0.03684999793767929,-0.07356250286102295
1752154090807236600,9.405236572265625,-0.08098749816417694,-0.024062499403953552,-0.027775000780820847
1752154090817090000,9.415090087890626,-0.07026249915361404,0.002474999986588955,0.002062499988824129
1752154090826943500,9.424943603515626,-0.05115000158548355,0.03863750025629997,0.01484999991953373
1752154090836797200,9.434797119140624,0.002062499988824129,-0.025162499397993088,0.004124999977648258
1752154090846650600,9.444650634765624,0.02227500081062317,0.04606249928474426,-0.06283749639987946
1752154090856504000,9.454504150390624,0.05211250111460686,0.007837500423192978,-0.09693749994039536
1752154090866357500,9.464357421875,0.05953750014305115,0.00989999994635582,-0.113987497985363
1752154090876211000,9.4742109375,0.013749999925494194,0.13653749227523804,-0.13626250624656677
1752154090886064600,9.484064697265625,-0.006462499964982271,0.03341250121593475,-0.08208750188350677
1752154090895918000,9.49391796875,-0.038362499326467514,-0.016637500375509262,0.008387500420212746
1752154090905771500,9.503771484375,-0.10119999945163727,0.03341250121593475,0.08181250095367432
1752154090915625200,9.513625244140625,-0.12347500026226044,-0.08689999580383301,0.1872749924659729
1752154090925478400,9.523478515625,-0.1438249945640564,-0.07947500050067902,0.23086249828338623
1752154090935331800,9.533331787109375,-0.11921250075101852,-0.0752125009894371,0.22769999504089355
1752154090945185500,9.543185546875,-0.06283749639987946,-0.06668750196695328,0.1765500009059906
1752154090955039000,9.5530390625,-0.030937500298023224,-0.035887498408555984,0.06696250289678574
1752154090964892400,9.562892333984376,-0.027775000780820847,0.0705375000834465,-0.057612501084804535
1752154090974746000,9.57274609375,-0.02241249941289425,0.10353749990463257,-0.10436250269412994
1752154090984599300,9.582599365234374,-0.02983750030398369,0.1311749964952469,-0.09157499670982361
1752154090994452700,9.59245263671875,-0.005362499970942736,0.057750001549720764,0.004124999977648258
1752154091004306400,9.602306396484375,-0.007562499959021807,0.04399999976158142,0.09679999947547913
1752154091014160000,9.612159912109375,-0.0032999999821186066,0.07383749634027481,0.18933749198913574
1752154091024013300,9.622013427734375,0.021175000816583633,0.0056374999694526196,0.26276248693466187
1752154091033867000,9.631866943359375,0.036024998873472214,0.010999999940395355,0.24365000426769257
1752154091043720400,9.641720458984375,0.03712499886751175,0.03863750025629997,0.17448750138282776
1752154091053573600,9.65157373046875,0.07232499867677689,-0.011412499472498894,0.07012499868869781
1752154091063427300,9.66142724609375,0.05211250111460686,0.16417500376701355,-0.07562500238418579
1752154091073280800,9.67128076171875,0.0541750006377697,0.16747500002384186,-0.15867500007152557
1752154091083134500,9.681134521484376,0.03506249934434891,0.18975000083446503,-0.16499999165534973
1752154091092988000,9.69098779296875,0.01691249944269657,0.20679999887943268,-0.1097249984741211
1752154091102841300,9.70084130859375,0.007424999959766865,0.13337500393390656,0.006324999965727329
1752154091112694800,9.71069482421875,0.020075000822544098,0.06201250106096268,0.12017499655485153
1752154091122548200,9.72054833984375,0.02433750033378601,0.08868750184774399,0.19580000638961792
1752154091132401700,9.730401611328125,0.05637500062584877,0.01732499897480011,0.24997499585151672
1752154091142255400,9.74025537109375,0.07232499867677689,-0.0017874999903142452,0.2223374992609024
1752154091152108800,9.75010888671875,0.08291249722242355,-0.012374999932944775,0.15001249313354492
1752154091161962200,9.759962158203125,0.07864999771118164,0.023787500336766243,0.1073874980211258
1752154091171815700,9.769815673828125,0.06696250289678574,0.022687500342726707,0.06270000338554382
1752154091181669400,9.77966943359375,0.02227500081062317,0.1280124932527542,-0.0010999999940395355
1752154091191522800,9.789522705078125,-0.006462499964982271,0.21642500162124634,-0.056512501090765
1752154091201376300,9.799376220703126,-0.014987500384449959,0.27912500500679016,-0.10326249897480011
1752154091211229700,9.809229736328126,-0.013887500390410423,0.3195500075817108,-0.12773749232292175
1752154091221083100,9.819083251953124,-0.02461249940097332,0.2503874897956848,-0.1097249984741211
1752154091230936600,9.8289365234375,-0.033137500286102295,0.14506250619888306,-0.11715000122785568
1752154091240790300,9.838790283203124,-0.05857500061392784,0.11742500215768814,-0.15757499635219574
1752154091250643700,9.848643798828125,-0.06187500059604645,0.04606249928474426,-0.1714625060558319
1752154091260497200,9.8584970703125,-0.07782500237226486,0.03863750025629997,-0.17572499811649323
1752154091270350600,9.8683505859375,-0.12993749976158142,0.03863750025629997,-0.19373749196529388
1752154091280204300,9.878204345703125,-0.15441249310970306,-0.1634874939918518,-0.1447875052690506
1752154091290057700,9.8880576171875,-0.1905750036239624,-0.24227499961853027,-0.06393750011920929
1752154091299911200,9.8979111328125,-0.2246749997138977,-0.15606249868869781,-0.013887500390410423
1752154091309764900,9.907764892578125,-0.2172500044107437,-0.1859000027179718,0.01691249944269657
1752154091319618300,9.917618408203126,-0.22151249647140503,-0.0976250022649765,0.007424999959766865
1752154091329471500,9.927471435546876,-0.2246749997138977,0.004537499975413084,0.002062499988824129
1752154091339325200,9.9373251953125,-0.20446249842643738,0.004537499975413084,0.008387500420212746
1752154091349178600,9.9471787109375,-0.18205000460147858,0.01952499896287918,-0.008662499487400055
1752154091359032300,9.9570322265625,-0.19167499244213104,0.082225002348423,-0.03203750029206276
1752154091368885800,9.9668857421875,-0.1905750036239624,0.06847500056028366,0.012649999931454659
1752154091378739200,9.9767392578125,-0.17668749392032623,0.059950001537799835,0.05843750014901161
1752154091388592600,9.986592529296875,-0.19689999520778656,0.14396250247955322,0.0648999959230423
1752154091398446300,9.9964462890625,-0.18205000460147858,0.1120624989271164,0.049912501126527786
1752154091408299500,10.006299560546875,-0.19277499616146088,0.12168750166893005,-0.02461249940097332
1752154091418153200,10.0161533203125,-0.2204124927520752,0.23759999871253967,-0.1331000030040741
1752154091428006700,10.026006591796875,-0.22990000247955322,0.25148749351501465,-0.21285000443458557
1752154091437860400,10.0358603515625,-0.23952500522136688,0.1685750037431717,-0.2586374878883362
1752154091447713800,10.0457138671875,-0.25437501072883606,0.022687500342726707,-0.25011250376701355
1752154091457567000,10.05556689453125,-0.23952500522136688,-0.17847499251365662,-0.16609999537467957
1752154091467420400,10.06542041015625,-0.1979999989271164,-0.3891249895095825,-0.025575000792741776
1752154091477274000,10.075274169921874,-0.1746249943971634,-0.40617498755455017,0.12017499655485153
1752154091487127600,10.08512744140625,-0.17036250233650208,-0.3273875117301941,0.20528750121593475
1752154091496981200,10.094981201171874,-0.16073749959468842,-0.27211248874664307,0.17132499814033508
1752154091506834700,10.104834716796875,-0.1597750037908554,-0.21779999136924744,0.03932499885559082
1752154091516688100,10.114688232421875,-0.1331000030040741,-0.22632500529289246,-0.03726249933242798
1752154091526541600,10.12454150390625,-0.113987497985363,-0.24433749914169312,0.008387500420212746
1752154091536395300,10.134395263671875,-0.1331000030040741,-0.13474999368190765,0.08291249722242355
1752154091546248400,10.14424853515625,-0.1597750037908554,0.01209999993443489,0.14781250059604645
1752154091556102100,10.15410205078125,-0.09157499670982361,0.002474999986588955,0.24255000054836273
1752154091565955600,10.16395556640625,-0.045787498354911804,-0.05073750019073486,0.31171250343322754
1752154091575809000,10.17380908203125,-0.07562500238418579,0.008937500417232513,0.21601249277591705
1752154091585662700,10.183662841796876,-0.09583749622106552,0.0471624992787838,0.01484999991953373
1752154091595516200,10.19351611328125,-0.08208750188350677,-0.05389999970793724,-0.12347500026226044
1752154091605369600,10.20336962890625,-0.06283749639987946,-0.05926249921321869,-0.11824999749660492
1752154091615223300,10.213223388671874,-0.038362499326467514,-0.08689999580383301,-0.006462499964982271
1752154091625076500,10.223076416015624,0.02227500081062317,-0.2167000025510788,0.1073874980211258
1752154091634930200,10.23293017578125,0.03189999982714653,-0.12732499837875366,0.1457500010728836
1752154091644783600,10.24278369140625,0.02433750033378601,-0.0644875019788742,0.0648999959230423
1752154091654637000,10.252636962890625,0.0658624991774559,-0.18700000643730164,-0.07878749817609787
1752154091664490800,10.26249072265625,0.04028749838471413,-0.026262499392032623,-0.30662500858306885
1752154091674344200,10.27234423828125,-0.021312499418854713,0.1387374997138977,-0.45553749799728394
1752154091684197600,10.28219775390625,-0.07026249915361404,0.14190000295639038,-0.44385001063346863
1752154091694051300,10.29205126953125,-0.0873124971985817,0.037675000727176666,-0.32147499918937683
1752154091703904500,10.301904541015626,-0.11921250075101852,-0.025162499397993088,-0.1555124968290329
1752154091713758200,10.31175830078125,-0.10119999945163727,-0.1050499975681305,0.006324999965727329
1752154091723611600,10.321611572265626,-0.04262499883770943,-0.11563749611377716,0.09363749623298645
1752154091733465000,10.331465087890624,-0.016087500378489494,-0.04853750020265579,0.040424998849630356
1752154091743318800,10.34131884765625,0.03189999982714653,-0.025162499397993088,-0.12457499653100967
1752154091753172200,10.351172119140625,0.09350000321865082,-0.13791249692440033,-0.24584999680519104
1752154091763025400,10.361025390625,0.11591249704360962,-0.28380000591278076,-0.2745875120162964
1752154091772879000,10.370879150390625,0.10532499849796295,-0.3870624899864197,-0.20446249842643738
1752154091782732500,10.380732666015625,0.10848750174045563,-0.3922874927520752,-0.09473749995231628
1752154091792586000,10.3905859375,0.13186250627040863,-0.26358750462532043,0.04138749837875366
1752154091802439700,10.400439697265625,0.1116499975323677,0.015262499451637268,0.1755875051021576
1752154091812293000,10.410293212890625,0.049912501126527786,0.1280124932527542,0.16376249492168427
1752154091822146600,10.420146484375,0.006324999965727329,0.24199999868869781,0.01691249944269657
1752154091832000300,10.430000244140626,0.0031624999828636646,0.18232500553131104,-0.16499999165534973
1752154091841853400,10.439853515625,-0.0032999999821186066,-0.012374999932944775,-0.33742499351501465
1752154091851707100,10.44970703125,0.020075000822544098,-0.32532501220703125,-0.3502124845981598
1752154091861560800,10.459560791015624,0.055275000631809235,-0.34759998321533203,-0.2714250087738037
1752154091871414000,10.4694140625,0.07548750191926956,-0.1060125008225441,-0.1097249984741211
1752154091881267700,10.479267822265625,0.08401250094175339,-0.11027500033378601,0.08084999769926071
1752154091891121200,10.48912109375,0.06063750013709068,-0.20295000076293945,0.2404875010251999
1752154091900974600,10.498974609375,0.038224998861551285,-0.2433750033378601,0.3022249937057495
1752154091910828000,10.508828125,0.04138749837875366,-0.2593249976634979,0.2297624945640564
1752154091920681700,10.518681640625,0.07328750193119049,-0.3922874927520752,0.1350249946117401
1752154091930535000,10.528534912109375,0.08607500046491623,-0.3529624938964844,0.009487500414252281
1752154091940388600,10.538388671875,0.0765874981880188,-0.14643749594688416,-0.04372499883174896
1752154091950242000,10.548241943359375,0.08717499673366547,0.11852499842643738,-0.0085249999538064
1752154091960095500,10.558095458984376,0.11701250076293945,0.24832500517368317,0.053075000643730164
1752154091969949000,10.567948974609376,0.09679999947547913,0.3185875117778778,0.13186250627040863
1752154091979802600,10.577802734375,0.05101250112056732,0.2579500079154968,0.16376249492168427
1752154091989656300,10.58765625,0.045649997889995575,0.11852499842643738,0.12759999930858612
1752154091999509800,10.597509765625,0.03506249934434891,0.057887498289346695,0.06063750013709068
1752154092009363200,10.60736328125,0.021175000816583633,0.022687500342726707,-0.007562499959021807
1752154092019216600,10.617216552734375,0.025437500327825546,-0.15289999544620514,-0.004399999976158142
1752154092029070000,10.627070068359375,0.03616249933838844,-0.23691250383853912,0.023375000804662704
1752154092038923500,10.636923583984375,0.028599999845027924,-0.2465374916791916,0.05211250111460686
1752154092048777000,10.64677685546875,0.023375000804662704,-0.22632500529289246,0.13928750157356262
1752154092058630700,10.656630615234375,0.032862499356269836,-0.2050125002861023,0.19470000267028809
1752154092068484000,10.666484130859375,0.06806249916553497,-0.18273749947547913,0.1915374994277954
1752154092078337500,10.676337646484376,0.07328750193119049,-0.13695000112056732,0.17132499814033508
1752154092088191000,10.68619091796875,0.06476250290870667,-0.07204999774694443,0.1307625025510788
1752154092098044400,10.69604443359375,0.10312499850988388,-0.05609999969601631,0.07548750191926956
1752154092107898000,10.705898193359374,0.11481250077486038,0.2079000025987625,0.005224999971687794
1752154092117751600,10.71575146484375,0.0999625027179718,0.4441249966621399,-0.07878749817609787
1752154092127605000,10.72560498046875,0.08923749625682831,0.45471251010894775,-0.1447875052690506
1752154092137458400,10.73545849609375,0.055275000631809235,0.29301249980926514,-0.1681624948978424
1752154092147312000,10.74531201171875,0.030799999833106995,0.14409999549388885,-0.14272500574588776
1752154092157165600,10.75516552734375,-0.002199999988079071,0.0471624992787838,-0.11288750171661377
1752154092167019000,10.76501904296875,-0.002199999988079071,-0.037950001657009125,-0.08621250092983246
1752154092176872400,10.77487255859375,-0.014987500384449959,-0.13474999368190765,-0.03203750029206276
1752154092186726100,10.78472607421875,-0.014987500384449959,-0.21147499978542328,0.04881250113248825
1752154092196579600,10.79457958984375,-0.005362499970942736,-0.18906250596046448,0.09253749996423721
1752154092206433000,10.80443310546875,0.02433750033378601,-0.23691250383853912,0.028599999845027924
1752154092216286700,10.81428662109375,0.03712499886751175,-0.1742125004529953,-0.09803749620914459
1752154092226140200,10.82414013671875,0.02969999983906746,0.013199999928474426,-0.19167499244213104
1752154092235993600,10.83399365234375,0.047849997878074646,0.08016250282526016,-0.2022625058889389
1752154092245847000,10.843846923828124,0.06159999966621399,0.2503874897956848,-0.18095000088214874
1752154092255700700,10.85370068359375,0.04358749836683273,0.2994749844074249,-0.11824999749660492
1752154092265554200,10.86355419921875,0.030799999833106995,0.2536875009536743,-0.03203750029206276
1752154092275407600,10.87340771484375,0.025437500327825546,0.08662500232458115,0.07122500240802765
1752154092285261000,10.883260986328125,-0.005362499970942736,-0.06558749824762344,0.10202500224113464
1752154092295114500,10.893114501953125,-0.010724999941885471,-0.07095000147819519,0.049912501126527786
1752154092304968200,10.90296826171875,-0.05004999786615372,0.07383749634027481,-0.028875000774860382
1752154092314821600,10.912821533203125,-0.06187500059604645,0.10889999568462372,-0.08951249718666077
1752154092324675300,10.92267529296875,-0.06077500060200691,0.023787500336766243,-0.11824999749660492
1752154092334528800,10.93252880859375,-0.0873124971985817,-0.035750001668930054,-0.11178749799728394
1752154092344382200,10.94238232421875,-0.0873124971985817,-0.11879999935626984,-0.04688749834895134
1752154092354235600,10.952235595703126,-0.06077500060200691,-0.13805000483989716,0.032862499356269836
1752154092364089000,10.962089111328124,-0.05004999786615372,-0.054999999701976776,0.0999625027179718
1752154092373942800,10.97194287109375,-0.028875000774860382,0.037675000727176666,0.09033749997615814
1752154092383796200,10.981796142578125,-0.02241249941289425,0.050324998795986176,0.026537500321865082
1752154092393649700,10.991649658203125,-0.0010999999940395355,-0.11137499660253525,0.028599999845027924
1752154092403503400,11.00150341796875,0.011687500402331352,-0.2539624869823456,0.0658624991774559
1752154092413356800,11.011356689453125,0.005224999971687794,-0.24860000610351562,0.11591249704360962
1752154092423210000,11.0212099609375,-0.007562499959021807,-0.07727500051259995,0.1574375033378601
1752154092433063700,11.031063720703125,-0.009624999947845936,0.03231250122189522,0.20528750121593475
1752154092442917000,11.040917236328125,0.011687500402331352,-0.03478749841451645,0.22027499973773956
1752154092452770800,11.050770751953126,0.009487500414252281,-0.018699999898672104,0.16279999911785126
1752154092462624300,11.060624267578126,0.01484999991953373,0.06531249731779099,0.018012499436736107
1752154092472477700,11.070477783203126,0.053075000643730164,-0.04427500069141388,-0.04372499883174896
1752154092482331100,11.0803310546875,0.08084999769926071,-0.11137499660253525,-0.03519999980926514
1752154092492184800,11.090184814453124,0.0658624991774559,-0.18796250224113464,0.006324999965727329
1752154092502038300,11.100038330078124,0.047849997878074646,-0.1358499974012375,0.03932499885559082
1752154092511891700,11.1098916015625,0.013749999925494194,-0.0038499999791383743,0.05211250111460686
1752154092521745400,11.119745361328125,-0.023512499406933784,0.00989999994635582,0.038224998861551285
1752154092531598600,11.1295986328125,-0.014987500384449959,-0.08896250277757645,0.05637500062584877
1752154092541452300,11.139452392578125,-0.03946249932050705,-0.11137499660253525,0.028599999845027924
1752154092551305700,11.1493056640625,-0.02667500078678131,-0.14959999918937683,0.005224999971687794
1752154092561159200,11.1591591796875,0.021175000816583633,-0.170912504196167,-0.00013749999925494194
1752154092571012900,11.169012939453125,0.05637500062584877,-0.11990000307559967,0.018012499436736107
1752154092580866300,11.1788662109375,0.057337500154972076,0.00989999994635582,0.028599999845027924
1752154092590719700,11.1887197265625,0.045649997889995575,0.13653749227523804,0.002062499988824129
1752154092600573400,11.198573486328126,0.023375000804662704,0.16431249678134918,-0.03946249932050705
1752154092610427000,11.208427001953124,-0.00013749999925494194,0.12168750166893005,-0.06710000336170197
1752154092620280300,11.2182802734375,-0.03629999980330467,0.1046374961733818,-0.08841250091791153
1752154092630133800,11.2281337890625,-0.07356250286102295,0.020624998956918716,-0.08415000140666962
1752154092639987200,11.2379873046875,-0.08841250091791153,-0.00494999997317791,-0.07672499865293503
1752154092649841000,11.2478408203125,-0.08951249718666077,-0.00494999997317791,-0.07136250287294388
1752154092659694300,11.2576943359375,-0.09047500044107437,0.09611249715089798,-0.06599999964237213
1752154092669547800,11.2675478515625,-0.08304999768733978,0.1046374961733818,-0.04372499883174896
1752154092679401500,11.2774013671875,-0.05115000158548355,-0.03148749843239784,-0.03726249933242798
1752154092689255000,11.2872548828125,-0.010724999941885471,-0.27211248874664307,-0.002199999988079071
1752154092699108400,11.2971083984375,0.04138749837875366,-0.39544999599456787,0.05843750014901161
1752154092708961800,11.3069619140625,0.055275000631809235,-0.3422375023365021,0.09886249899864197
1752154092718815200,11.316815185546876,0.08401250094175339,-0.11247500032186508,0.1073874980211258
1752154092728668700,11.326668701171876,0.12223749607801437,0.030249999836087227,0.12017499655485153
1752154092738522400,11.3365224609375,0.1457500010728836,0.02914999984204769,0.12759999930858612
1752154092748375800,11.346375732421874,0.13722500205039978,0.13021250069141388,0.12333749979734421
1752154092758229200,11.356229248046875,0.08937499672174454,0.2750000059604645,0.15633749961853027
1752154092768083000,11.3660830078125,0.0765874981880188,0.5208500027656555,0.17874999344348907
1752154092777936400,11.375936279296875,0.03616249933838844,0.5570124983787537,0.2223374992609024
1752154092787790000,11.3857900390625,-0.01924999989569187,0.4558124840259552,0.27018749713897705
1752154092797643500,11.3956435546875,-0.11178749799728394,0.5570124983787537,0.3053874969482422
1752154092807497000,11.4054970703125,-0.2246749997138977,0.6782875061035156,0.3404499888420105
1752154092817350400,11.415350341796875,-0.2938374876976013,0.7932375073432922,0.33838748931884766
1752154092827203800,11.425203857421875,-0.32257500290870667,0.8410875201225281,0.2903999984264374
1752154092837057500,11.4350576171875,-0.3310999870300293,0.7623000144958496,0.29686251282691956
1752154092846911000,11.444910888671876,-0.34168750047683716,0.609125018119812,0.3628624975681305
1752154092856764400,11.454764404296874,-0.3587374985218048,0.41222500801086426,0.4713499844074249
1752154092866618000,11.4646181640625,-0.31831249594688416,0.4292750060558319,0.5256624817848206
1752154092876471600,11.474471435546874,-0.23319999873638153,0.5473874807357788,0.46076250076293945
1752154092886325000,11.484324951171875,-0.14272500574588776,0.4930749833583832,0.3788124918937683
1752154092896178400,11.494178466796875,-0.06187500059604645,0.36643749475479126,0.3031874895095825
1752154092906031900,11.504031982421875,-0.007562499959021807,0.271699994802475,0.2595999836921692
1752154092915885600,11.513885498046875,0.023375000804662704,0.2579500079154968,0.22123749554157257
1752154092925739000,11.523739013671875,0.09459999948740005,0.18658749759197235,0.20006249845027924
1752154092935592400,11.533592529296875,0.18301250040531158,0.14079999923706055,0.10628750175237656
1752154092945446000,11.54344580078125,0.2106499969959259,0.09721250087022781,-0.0448249988257885
1752154092955299600,11.553299560546876,0.1915374994277954,0.0056374999694526196,-0.1714625060558319
1752154092965153000,11.563153076171876,0.20418749749660492,-0.2124374955892563,-0.2703250050544739
1752154092975006700,11.5730068359375,0.2149125039577484,-0.3891249895095825,-0.40658751130104065
1752154092984860000,11.58285986328125,0.20212499797344208,-0.3667125105857849,-0.5587999820709229
1752154092994713300,11.59271337890625,0.24681249260902405,-0.42528748512268066,-0.6811749935150146
1752154093004567000,11.602567138671875,0.2829749882221222,-0.4380750060081482,-0.8152375221252441
1752154093014420500,11.61242041015625,0.30744999647140503,-0.476437509059906,-0.9120374917984009
1752154093024274200,11.622274169921875,0.3287625014781952,-0.607337474822998,-0.9174000024795532
1752154093034127600,11.632127685546875,0.3489750027656555,-0.7180249691009521,-0.8386124968528748
1752154093043981000,11.64198095703125,0.30428749322891235,-0.7477250099182129,-0.7662875056266785
1752154093053834500,11.65183447265625,0.25423750281333923,-0.7732999920845032,-0.7631250023841858
1752154093063688200,11.661688232421875,0.18081249296665192,-0.7095000147819519,-0.8152375221252441
1752154093073541400,11.671541259765625,0.09143749624490738,-0.5211250185966492,-0.901449978351593
1752154093083395000,11.68139501953125,0.053075000643730164,-0.491287499666214,-0.854699969291687
1752154093093248500,11.69124853515625,0.030799999833106995,-0.44866248965263367,-0.5428500175476074
1752154093103102200,11.701102294921874,-0.05431250110268593,-0.30717501044273376,-0.13420000672340393
1752154093112955600,11.71095556640625,-0.08524999767541885,-0.15399999916553497,0.21175000071525574
1752154093122809000,11.72080908203125,-0.12251249700784683,0.18768750131130219,0.49582499265670776
1752154093132662500,11.73066259765625,-0.1746249943971634,0.6654999852180481,0.6841999888420105
1752154093142516200,11.74051611328125,-0.16403749585151672,0.9315624833106995,0.7969499826431274
1752154093152369700,11.75036962890625,-0.17998750507831573,1.0784125328063965,0.8438374996185303
1752154093162223400,11.760223388671875,-0.20542499423027039,1.0826749801635742,0.8959500193595886
1752154093172076500,11.77007666015625,-0.21821250021457672,0.9048874974250793,0.9534249901771545
1752154093181930000,11.779929931640625,-0.2704625129699707,0.8188124895095825,0.9300500154495239
1752154093191783700,11.78978369140625,-0.2714250087738037,0.7303999662399292,0.8417750000953674
1752154093201637000,11.79963720703125,-0.29163751006126404,0.7452499866485596,0.7299875020980835
1752154093211490800,11.80949072265625,-0.305525004863739,0.7293000221252441,0.6363499760627747
1752154093221344300,11.81934423828125,-0.2662000060081482,0.4930749833583832,0.5277249813079834
1752154093231197700,11.82919775390625,-0.2246749997138977,0.26221248507499695,0.34581249952316284
1752154093241051100,11.839051025390624,-0.16499999165534973,0.1461624950170517,0.10958749800920486
1752154093250904800,11.84890478515625,-0.08415000140666962,0.04399999976158142,-0.08415000140666962
1752154093260758300,11.85875830078125,-0.05857500061392784,-0.009212499484419823,-0.26936250925064087
1752154093270611700,11.86861181640625,-0.038362499326467514,-0.14863750338554382,-0.4193750023841858
1752154093280465200,11.878465087890625,-0.05335000157356262,-0.2784374952316284,-0.5460125207901001
1752154093290318600,11.888318603515625,-0.07026249915361404,-0.3763374984264374,-0.6811749935150146
1752154093300172300,11.89817236328125,-0.03946249932050705,-0.5828624963760376,-0.7833374738693237
1752154093310025700,11.908025634765625,0.005224999971687794,-0.7328749895095825,-0.8291249871253967
1752154093319879200,11.917879150390625,0.07232499867677689,-0.858412504196167,-0.8493375182151794
1752154093329732900,11.92773291015625,0.15523749589920044,-0.9383000135421753,-0.7418124675750732
1752154093339586300,11.93758642578125,0.2404875010251999,-0.8435624837875366,-0.49486249685287476
1752154093349439700,11.947439697265626,0.329862505197525,-0.811662495136261,-0.1555124968290329
1752154093359293200,11.957293212890624,0.40328750014305115,-0.8381999731063843,0.07975000143051147
1752154093369146600,11.967146728515624,0.4542999863624573,-0.8978750109672546,0.1722874939441681
1752154093379000300,11.977000244140624,0.47561249136924744,-0.8424624800682068,0.1457500010728836
1752154093388853800,11.986853759765625,0.427762508392334,-0.476437509059906,0.1073874980211258
1752154093398707200,11.996707275390625,0.3638249933719635,-0.22206249833106995,0.09253749996423721
1752154093408561000,12.006560791015625,0.2531374990940094,0.05884999781847,0.07548750191926956
1752154093418414300,12.016414306640625,0.1648624986410141,0.1578499972820282,0.1264999955892563
1752154093428267800,12.026267822265625,0.03932499885559082,0.1695374995470047,0.23196250200271606
1752154093438121200,12.036121337890625,-0.05115000158548355,0.1344749927520752,0.3469125032424927
1752154093447975000,12.045974853515625,-0.11921250075101852,0.12168750166893005,0.4138749837875366
1752154093457828400,12.055828369140626,-0.13956250250339508,0.10999999940395355,0.4086500108242035
1752154093467682000,12.06568212890625,-0.10656250268220901,0.028049999848008156,0.3469125032424927
1752154093477535500,12.075535400390624,-0.038362499326467514,-0.020899999886751175,0.26276248693466187
1752154093487389000,12.085388916015624,0.06806249916553497,0.07809999585151672,0.1297999918460846
1752154093497242400,12.095242431640624,0.17338749766349792,0.1270499974489212,-0.009624999947845936
1752154093507095800,12.105095703125,0.2564375102519989,0.14409999549388885,-0.10546249896287918
1752154093516949200,12.11494921875,0.27018749713897705,0.13653749227523804,-0.13846249878406525
1752154093526803000,12.124802978515625,0.23196250200271606,0.07493750005960464,-0.13942499458789825
1752154093536656400,12.134656494140625,0.16060000658035278,0.10683749616146088,-0.1671999990940094
1752154093546510000,12.144510009765625,0.06696250289678574,0.006737499963492155,-0.19263750314712524
1752154093556363500,12.154363525390625,-0.03629999980330467,-0.11769999563694,-0.22247499227523804
1752154093566217000,12.164217041015625,-0.1214125007390976,-0.31033748388290405,-0.17668749392032623
1752154093576070400,12.1740703125,-0.1746249943971634,-0.32202500104904175,-0.15867500007152557
1752154093585923800,12.183923828125,-0.17998750507831573,-0.19965000450611115,-0.1714625060558319
1752154093595777300,12.19377734375,-0.1788875013589859,-0.024062499403953552,-0.21078750491142273
1752154093605631000,12.203630859375,-0.14904999732971191,0.06421250104904175,-0.20652499794960022
1752154093615484400,12.213484375,-0.11508750170469284,0.031212499365210533,-0.21188749372959137
1752154093625337900,12.223337890625,-0.09157499670982361,-0.04001250118017197,-0.18947499990463257
1752154093635191600,12.233191650390625,-0.08415000140666962,-0.07301250100135803,-0.15015000104904175
1752154093645045000,12.243044921875,-0.09693749994039536,-0.020899999886751175,-0.09047500044107437
1752154093654898400,12.2528984375,-0.09803749620914459,0.0035749999806284904,-0.04262499883770943
1752154093664752000,12.262752197265625,-0.09267500042915344,0.07699999958276749,-0.018149999901652336
1752154093674605300,12.272605224609375,-0.07356250286102295,0.055687498301267624,0.0031624999828636646
1752154093684459000,12.282458984375,-0.03739999979734421,0.0695749968290329,0.020212499424815178
1752154093694312400,12.2923125,0.004124999977648258,0.057887498289346695,0.04675000160932541
1752154093704166100,12.302166259765626,0.020075000822544098,0.0035749999806284904,0.06379999965429306
1752154093714019600,12.31201953125,0.06806249916553497,-0.08896250277757645,0.1266375035047531
1752154093723873000,12.321873046875,0.09350000321865082,-0.02199999988079071,0.16279999911785126
