time,seconds_elapsed,z,y,x
1752154081456345900,0.054345947265625,8.151000022888184,2.338050127029419,-0.22905001044273376
1752154081466199000,0.064198974609375,7.408950328826904,2.86995005607605,0.21495001018047333
1752154081476052200,0.07405224609375,6.055950164794922,2.5540502071380615,1.078950047492981
1752154081485905700,0.08390576171875,4.528950214385986,2.0490000247955322,1.4860501289367676
1752154081495759000,0.093759033203125,4.572000026702881,1.8049501180648804,1.5100500583648682
1752154081505612300,0.1036123046875,5.794950485229492,1.6200001239776611,1.371000051498413
1752154081515465500,0.113465576171875,6.327000141143799,1.8880500793457031,1.6009501218795776
1752154081525319000,0.12331884765625,6.20205020904541,2.8510501384735107,2.350950002670288
1752154081535172400,0.13317236328125,6.909000396728516,4.07895040512085,2.6040000915527344
1752154081545025500,0.143025634765625,7.941000461578369,4.579950332641602,2.1739501953125
1752154081554879000,0.15287890625,9.352950096130371,4.243950366973877,1.29705011844635
1752154081564732200,0.162732177734375,11.961000442504883,3.2029502391815186,1.0069500207901
1752154081574585600,0.172585693359375,13.15095043182373,2.4079501628875732,0.7729500532150269
1752154081584438800,0.182438720703125,12.055950164794922,2.0250000953674316,0.9720000624656677
1752154081594292200,0.192292236328125,10.624950408935547,2.499000072479248,1.5010501146316528
1752154081604145400,0.2021455078125,9.298050880432129,3.2119500637054443,2.095050096511841
1752154081613998800,0.211998779296875,7.474050521850586,3.8680500984191895,2.7529501914978027
1752154081623852000,0.22185205078125,5.503050327301025,4.242000102996826,3.873000144958496
1752154081633705500,0.23170556640625,6.004050254821777,3.96405029296875,5.9730000495910645
1752154081643558700,0.24155859375,6.94005012512207,2.82705020904541,6.343950271606445
1752154081653411800,0.251411865234375,6.721950531005859,1.3639500141143799,3.850050210952759
1752154081663265300,0.261265380859375,7.581000328063965,0.6049500107765198,2.0269501209259033
1752154081673118700,0.27111865234375,9.46095085144043,0.7219500541687012,1.264050006866455
1752154081682972000,0.280971923828125,12.27405071258545,0.8590500354766846,1.1059499979019165
1752154081692825300,0.290825439453125,14.652000427246094,0.6739500164985657,1.7040001153945923
1752154081702678500,0.300678466796875,13.762950897216797,-0.1080000028014183,0.28905001282691956
1752154081712532000,0.310531982421875,6.778950214385986,-5.392050266265869,-0.6790500283241272
1752154081722385200,0.32038525390625,7.288950443267822,-2.422950029373169,-0.4620000123977661
1752154081732238600,0.330238525390625,11.32395076751709,2.551950216293335,-0.9790500402450562
1752154081742092000,0.340092041015625,12.279000282287598,5.386050224304199,-0.8899500370025635
1752154081751945200,0.3499453125,10.455000877380371,6.754050254821777,0.10200000554323196
1752154081761798700,0.359798583984375,9.39900016784668,5.808000087738037,-0.5260500311851501
1752154081771651800,0.36965185546875,8.664000511169434,2.998950242996216,-1.218000054359436
1752154081781505000,0.379505126953125,8.002950668334961,1.1989500522613525,-1.2370500564575195
1752154081791358500,0.3893583984375,8.221050262451172,0.700950026512146,-0.547950029373169
1752154081801212000,0.3992119140625,9.025050163269043,0.7770000100135803,0.04305000230669975
1752154081811065000,0.409065185546875,10.21500015258789,1.0000500679016113,0.43800002336502075
1752154081820918500,0.41891845703125,13.531050682067871,-0.30105000734329224,2.5470001697540283
1752154081830771700,0.428771728515625,11.239950180053711,-0.31800001859664917,3.3829500675201416
1752154081840625200,0.438625244140625,10.749000549316406,-1.1040000915527344,2.1499500274658203
1752154081850478300,0.448478271484375,10.986000061035156,-0.5430000424385071,0.544950008392334
1752154081860331800,0.458331787109375,11.211000442504883,-0.9379500150680542,-0.2530499994754791
1752154081870185200,0.468185302734375,10.966950416564941,-0.8860500454902649,-0.2560500204563141
1752154081880038400,0.478038330078125,12.432000160217285,1.3450500965118408,-1.2109500169754028
1752154081889891600,0.4878916015625,13.050000190734863,2.6040000915527344,-2.8150501251220703
1752154081899745300,0.497745361328125,12.676050186157227,2.745000123977661,-3.7350001335144043
1752154081909598500,0.507598388671875,11.211000442504883,2.0749499797821045,-3.337050199508667
1752154081919451600,0.51745166015625,10.174050331115723,1.4880000352859497,-2.050950050354004
1752154081929305000,0.52730517578125,8.92905044555664,1.4449501037597656,-1.374000072479248
1752154081939158500,0.537158447265625,8.470050811767578,1.5240000486373901,-1.4719500541687012
1752154081949011700,0.54701171875,8.185050010681152,1.864050030708313,-1.4070000648498535
1752154081958865000,0.556864990234375,8.035950660705566,2.2260000705718994,-1.659000039100647
1752154081968718300,0.56671826171875,8.214000701904297,2.590050220489502,-2.032050132751465
1752154081978571800,0.57657177734375,8.41200065612793,2.7550501823425293,-2.4679501056671143
1752154081988425000,0.586425048828125,8.671050071716309,2.551950216293335,-2.3989500999450684
1752154081998278400,0.5962783203125,9.541950225830078,2.326050043106079,-2.2210500240325928
1752154082008131600,0.606131591796875,9.846000671386719,2.0250000953674316,-1.9339500665664673
1752154082017985000,0.615985107421875,9.669000625610352,1.8979500532150269,-1.4700000286102295
1752154082027838500,0.62583837890625,9.265050888061523,1.8570001125335693,-1.0309500694274902
1752154082037691600,0.635691650390625,9.505950927734375,1.9960501194000244,-0.7470000386238098
1752154082047544800,0.645544921875,9.660000801086426,1.9890000820159912,-0.9480000734329224
1752154082057398000,0.65539794921875,9.802950859069824,2.1469500064849854,-1.1730000972747803
1752154082067251500,0.66525146484375,8.958000183105469,1.9069501161575317,-0.10200000554323196
1752154082077105000,0.67510498046875,8.479050636291504,2.0869500637054443,-0.06405000388622284
1752154082086958000,0.6849580078125,8.497950553894043,1.9000500440597534,-0.7110000252723694
1752154082096811500,0.6948115234375,8.770950317382812,2.089050054550171,-1.1820000410079956
1752154082106665000,0.7046650390625,9.301050186157227,2.149049997329712,-1.3090500831604004
1752154082116518100,0.71451806640625,9.777000427246094,1.9669500589370728,-1.3690500259399414
1752154082126371600,0.72437158203125,10.39995002746582,1.7779500484466553,-1.371000051498413
1752154082136224800,0.734224853515625,10.600950241088867,1.7089500427246094,-1.5679501295089722
1752154082146078500,0.744078369140625,10.609950065612793,1.8520500659942627,-1.8360000848770142
1752154082155931600,0.753931640625,10.23900032043457,1.990950107574463,-1.738050103187561
1752154082165784800,0.763784912109375,10.342050552368164,1.6819500923156738,-1.6639500856399536
1752154082175638000,0.773637939453125,10.528950691223145,1.1010000705718994,-0.39000001549720764
1752154082185491500,0.783491455078125,10.633950233459473,1.7640000581741333,-0.11205000430345535
1752154082195345000,0.793344970703125,9.850950241088867,2.1250500679016113,-1.0270500183105469
1752154082205198000,0.803197998046875,9.210000038146973,2.4750001430511475,-1.3399500846862793
1752154082215051300,0.81305126953125,8.452950477600098,3.114000082015991,-2.4660000801086426
1752154082224905000,0.822905029296875,8.728050231933594,3.117000102996826,-2.521050214767456
1752154082234758400,0.83275830078125,9.030000686645508,3.3540000915527344,-2.25
1752154082244611600,0.842611572265625,9.307950019836426,3.06600022315979,-1.9939501285552979
1752154082254464800,0.85246484375,9.772050857543945,2.839050054550171,-1.7329500913619995
1752154082264318200,0.862318115234375,10.006950378417969,2.6899502277374268,-1.3810501098632812
1752154082274171600,0.872171630859375,9.841950416564941,2.53695011138916,-1.2060000896453857
1752154082284024800,0.88202490234375,9.313050270080566,2.5009500980377197,-1.3570500612258911
1752154082293878000,0.8918779296875,8.668050765991211,2.6950502395629883,-1.3999500274658203
1752154082303731700,0.901731689453125,8.209050178527832,3.028050184249878,-1.908000111579895
1752154082313585000,0.9115849609375,8.134950637817383,2.9850001335144043,-1.8600001335144043
1752154082323438000,0.92143798828125,8.55405044555664,2.6260502338409424,-1.8000000715255737
1752154082333291300,0.931291259765625,9.403050422668457,1.4209500551223755,-0.9930000305175781
1752154082343144700,0.941144775390625,8.63700008392334,0.9070500135421753,-0.41100001335144043
1752154082352998100,0.950998046875,9.094950675964355,3.44700026512146,-0.8449500203132629
1752154082362851600,0.9608515625,9.607050895690918,3.330000162124634,-2.7769501209259033
1752154082372704800,0.970704833984375,9.471000671386719,2.809950113296509,-3.52905011177063
1752154082382558200,0.98055810546875,9.444000244140625,2.698050022125244,-2.140050172805786
1752154082392411600,0.99041162109375,9.319950103759766,2.4460501670837402,-1.4620500802993774
1752154082402264800,1.000264892578125,9.127950668334961,2.3910000324249268,-1.6639500856399536
1752154082471235300,1.0692353515625,9.351000785827637,2.269050121307373,-1.467000126838684
1752154082481088800,1.0790888671875,9.328950881958008,2.3430001735687256,-1.4860501289367676
1752154082490942000,1.08894189453125,9.358050346374512,2.568000078201294,-1.8019500970840454
1752154082500795400,1.09879541015625,9.492000579833984,2.722050189971924,-2.230950117111206
1752154082510648800,1.10864892578125,9.64995002746582,2.805000066757202,-2.521050214767456
1752154082520502000,1.118501953125,9.781949996948242,2.808000087738037,-2.63100004196167
1752154082530355500,1.12835546875,9.70305061340332,2.620950222015381,-2.539950132369995
1752154082564847600,1.16284765625,9.229050636291504,2.1540000438690186,-2.0659501552581787
1752154082574698200,1.1726982421875,9.243000030517578,2.3239500522613525,-2.638050079345703
1752154082584551700,1.1825517578125,8.896050453186035,2.4850502014160156,-3.1240501403808594
1752154082594404900,1.19240478515625,8.611050605773926,2.6110501289367676,-3.2029502391815186
1752154082604258300,1.20225830078125,8.66100025177002,2.63100004196167,-2.977950096130371
1752154082614111700,1.21211181640625,8.431050300598145,2.4870002269744873,-3.0019500255584717
1752154082623965200,1.221965087890625,8.356950759887695,2.3149502277374268,-3.100050210952759
1752154082633818400,1.231818359375,8.443050384521484,2.0460000038146973,-3.007050037384033
1752154082643671600,1.241671630859375,8.427000045776367,1.5870001316070557,-2.800950050354004
1752154082653525000,1.25152490234375,7.8259501457214355,1.3639500141143799,-2.616000175476074
1752154082663378200,1.261378173828125,7.806000232696533,1.2750000953674316,-2.5570502281188965
1752154082673231600,1.271231689453125,8.058000564575195,1.4449501037597656,-2.740950107574463
1752154082683085000,1.2810849609375,8.296950340270996,1.5529500246047974,-2.9250001907348633
1752154082692938500,1.2909384765625,8.725950241088867,1.519950032234192,-3.198000192642212
1752154082702791700,1.300791748046875,8.932050704956055,1.443000078201294,-3.3349502086639404
1752154082712644900,1.310644775390625,9.018000602722168,1.2300000190734863,-3.409050226211548
1752154082722498300,1.320498291015625,9.016050338745117,0.853950023651123,-3.355950117111206
1752154082732351700,1.330351806640625,9.352950096130371,0.40905001759529114,-3.069000244140625
1752154082742205200,1.340205078125,9.580950736999512,0.010950000956654549,-2.7169501781463623
1752154082752058400,1.350058349609375,9.082950592041016,-0.5530500411987305,-2.4820501804351807
1752154082761911600,1.35991162109375,8.920050621032715,-0.7800000309944153,-2.431950092315674
1752154082771765000,1.369764892578125,9.118950843811035,-0.6799500584602356,-2.581050157546997
1752154082781618400,1.379618408203125,9.41100025177002,-0.4810500144958496,-2.6860501766204834
1752154082791471600,1.3894716796875,9.255000114440918,0.28200000524520874,-2.3869500160217285
1752154082801324800,1.39932470703125,9.664050102233887,1.4050500392913818,-1.908000111579895
1752154082811178500,1.409178466796875,9.444000244140625,2.382000207901001,-0.9070500135421753
1752154082821032000,1.419031982421875,9.396000862121582,2.458050012588501,-0.05700000375509262
1752154082830885000,1.428885009765625,10.195950508117676,1.8330000638961792,-0.3130500018596649
1752154082840738300,1.43873828125,8.416950225830078,1.078950047492981,-1.180050015449524
1752154082850591700,1.448591796875,7.773000240325928,1.0219500064849854,-0.895050048828125
1752154082860445000,1.45844482421875,7.603050231933594,1.1890500783920288,-0.2370000183582306
1752154082870298400,1.46829833984375,8.616000175476074,1.2109500169754028,-0.21000000834465027
1752154082880151800,1.47815185546875,9.72195053100586,1.1149500608444214,-0.037950001657009125
1752154082890005200,1.488005126953125,10.419000625610352,0.700950026512146,0.25995001196861267
1752154082899858400,1.4978583984375,6.621000289916992,0.6600000262260437,1.7260501384735107
1752154082909712000,1.5077119140625,1.1839500665664673,0.1380000114440918,2.8150501251220703
1752154082919565000,1.51756494140625,-0.0580500029027462,-0.531000018119812,3.01200008392334
1752154082929418500,1.52741845703125,1.6030501127243042,-1.4940000772476196,2.02305006980896
1752154082939272000,1.53727197265625,9.664050102233887,-1.8430501222610474,2.31000018119812
1752154082949125000,1.547125,15.022951126098633,-0.14100000262260437,2.329050064086914
1752154082958978600,1.556978515625,11.017050743103027,0.49995002150535583,3.5209500789642334
1752154082988538400,1.586538330078125,7.854000568389893,-1.2450000047683716,5.080050468444824
1752154083008245200,1.606245361328125,9.70305061340332,-2.473050117492676,6.8710503578186035
1752154083057511700,1.65551171875,14.242051124572754,-2.4079501628875732,6.663000106811523
1752154083087072000,1.685072021484375,10.95300006866455,-0.559950053691864,3.3630001544952393
1752154083096925200,1.69492529296875,9.778950691223145,-1.5870001316070557,4.2330002784729
1752154083106778600,1.704778564453125,9.784050941467285,-2.332050085067749,4.185000419616699
1752154083116632000,1.714632080078125,9.954000473022461,-2.2930500507354736,3.5119502544403076
1752154083126485500,1.724485595703125,9.906000137329102,-2.40405011177063,4.122000217437744
1752154083136338700,1.734338623046875,9.41100025177002,-3.0049500465393066,4.648950099945068
1752154083146192100,1.744192138671875,9.018000602722168,-2.7769501209259033,4.837950229644775
1752154083156045300,1.75404541015625,9.283950805664062,-1.870050072669983,3.9619503021240234
1752154083165898800,1.763898681640625,9.118950843811035,-0.6100500226020813,2.4870002269744873
1752154083175752000,1.773751953125,8.51294994354248,0.006000000052154064,1.735050082206726
1752154083185605400,1.78360546875,7.8160505294799805,0,1.582050085067749
1752154083195459000,1.793458984375,6.174000263214111,-0.3949500322341919,2.559000015258789
1752154083205312300,1.803312255859375,5.611050128936768,-0.9409500360488892,3.283950090408325
1752154083215165400,1.81316552734375,5.752050399780273,-0.51705002784729,2.956050157546997
1752154083234872000,1.8328720703125,7.852050304412842,-0.2970000207424164,0.9859500527381897
1752154083244725500,1.8427255859375,7.837950229644775,-0.7230000495910645,1.0339500904083252
1752154083254578700,1.85257861328125,9.43695068359375,-2.11395001411438,1.3260000944137573
1752154083274285600,1.87228564453125,8.838000297546387,-8.929950714111328,7.297050476074219
1752154083284139000,1.882138916015625,8.797950744628906,-5.124000072479248,3.129000186920166
1752154083293992200,1.8919921875,10.426050186157227,-6.559950351715088,0.5689499974250793
1752154083303845400,1.901845458984375,8.12505054473877,-5.85105037689209,2.2980000972747803
1752154083313698800,1.91169873046875,8.011950492858887,-6.309000492095947,1.812000036239624
1752154083323552500,1.921552490234375,8.199000358581543,-5.2860002517700195,2.2860000133514404
1752154083333405700,1.93140576171875,7.933050155639648,-4.932000160217285,2.640000104904175
1752154083343259000,1.9412587890625,8.02695083618164,-5.053950309753418,3.7920002937316895
1752154083353112000,1.951112060546875,7.704000473022461,-4.471950054168701,4.4070000648498535
1752154083362965800,1.9609658203125,7.792050361633301,-4.587000370025635,5.551950454711914
1752154083372819000,1.97081884765625,8.074950218200684,-5.2819504737854,6.349050521850586
1752154083382672100,1.980672119140625,8.119950294494629,-4.374000072479248,5.559000492095947
1752154083392525800,1.99052587890625,6.9970502853393555,-4.34505033493042,4.339950084686279
1752154083402379300,2.000379150390625,7.378050327301025,-5.065950393676758,5.089950084686279
1752154083412232400,2.010232421875,7.404000282287598,-5.278950214385986,4.9009504318237305
1752154083422085600,2.020085693359375,7.716000556945801,-4.756950378417969,4.04295015335083
1752154083431939300,2.029939208984375,8.302050590515137,-4.426949977874756,3.178950071334839
1752154083441792500,2.03979248046875,8.43600082397461,-4.50600004196167,3.3630001544952393
1752154083451646000,2.04964599609375,8.158050537109375,-4.132050037384033,2.740950107574463
1752154083461499400,2.05949951171875,8.0910005569458,-4.144050121307373,2.332050085067749
1752154083471352800,2.069352783203125,7.893000602722168,-4.744950294494629,2.0470499992370605
1752154083481206000,2.0792060546875,7.129050254821777,-4.717050075531006,0.8899500370025635
1752154083491059500,2.0890595703125,6.38700008392334,-4.495950222015381,0.4020000100135803
1752154083500912600,2.09891259765625,4.680000305175781,-4.527000427246094,0.5929500460624695
1752154083510766000,2.10876611328125,4.926000118255615,-5.308050155639648,3.559950113296509
1752154083520619500,2.11861962890625,5.713950157165527,-4.767000198364258,3.7609500885009766
1752154083530473000,2.128472900390625,5.4340500831604,-4.719000339508057,3.1459500789642334
1752154083540326100,2.138326171875,6.564000129699707,-5.650050163269043,4.768950462341309
1752154083560032800,2.15803271484375,7.123950481414795,-6.223050117492676,8.719050407409668
1752154083569886200,2.16788623046875,7.6459503173828125,-3.850050210952759,5.1469502449035645
1752154083579739600,2.17773974609375,3.2190001010894775,-2.0400002002716064,9.069000244140625
1752154083589592800,2.1875927734375,14.158950805664062,-7.003050327301025,11.569050788879395
1752154083599446300,2.1974462890625,10.59795093536377,-2.6670000553131104,10.206000328063965
1752154083609299500,2.207299560546875,9.022950172424316,-0.5620500445365906,6.409050464630127
1752154083619153000,2.21715283203125,5.695050239562988,-0.6820500493049622,5.305050373077393
1752154083648713200,2.246713134765625,8.818950653076172,-2.593050241470337,5.242950439453125
1752154083668419800,2.266419921875,8.625,-3.5719501972198486,4.639950275421143
1752154083678273000,2.27627294921875,8.315999984741211,-3.52905011177063,3.4039502143859863
1752154083688126200,2.286126220703125,8.616000175476074,-3.637050151824951,2.830050230026245
1752154083697979600,2.295979736328125,8.805000305175781,-4.539000034332275,2.439000129699707
1752154083707833000,2.3058330078125,7.716000556945801,-5.764950275421143,5.182950019836426
1752154083717686500,2.3156865234375,7.6870503425598145,-5.602050304412842,4.812000274658203
1752154083727540000,2.3255400390625,6.679050445556641,-6.100050449371338,4.623000144958496
1752154083737393200,2.33539306640625,8.460000038146973,-4.027050018310547,6.009000301361084
1752154083747246600,2.34524658203125,12.765000343322754,-3.586050271987915,1.1059499979019165
1752154083766953200,2.364953125,8.764050483703613,-5.671950340270996,5.298000335693359
1752154083776806700,2.374806640625,8.074950218200684,-3.9310503005981445,4.453050136566162
1752154083786660000,2.38466015625,9.708000183105469,-2.9280002117156982,2.9040000438690186
1752154083796513300,2.39451318359375,9.042000770568848,-3.079050064086914,2.190000057220459
1752154083806366500,2.404366455078125,8.398050308227539,-2.3460001945495605,3.418950080871582
1752154083816220000,2.414219970703125,9.070950508117676,-3.2539501190185547,3.186000108718872
1752154083826073300,2.4240732421875,6.475050449371338,-4.565999984741211,3.847050189971924
1752154083835926800,2.4339267578125,6.073050498962402,-2.800950050354004,6.7009501457214355
1752154083845780200,2.4437802734375,8.175000190734863,-5.595000267028809,2.2380001544952393
1752154083855633700,2.453633544921875,4.948050022125244,-4.405050277709961,6.079050064086914
1752154083865487000,2.463487060546875,7.726950168609619,-3.289950132369995,5.679000377655029
1752154083875340000,2.473340087890625,6.39900016784668,-5.032950401306152,1.7950501441955566
1752154083885193500,2.483193359375,5.995950222015381,-2.7360000610351562,6.352050304412842
1752154083895047000,2.493046875,7.4350504875183105,-2.8939502239227295,3.699000120162964
1752154083904900400,2.502900390625,7.998000144958496,-3.6250500679016113,1.6399500370025635
1752154083914753800,2.51275390625,8.769000053405762,-4.587000370025635,2.739000082015991
1752154083924607200,2.522607177734375,7.380000114440918,-4.800000190734863,1.8859500885009766
1752154083934460400,2.53246044921875,8.623050689697266,-3.9619503021240234,1.9720500707626343
1752154083944313900,2.54231396484375,8.029050827026367,-3.697050094604492,3.4710001945495605
1752154083954167300,2.552167236328125,7.821000576019287,-2.578050136566162,3.4420502185821533
1752154083964020500,2.5620205078125,9.085050582885742,-2.7270002365112305,-1.4170501232147217
1752154083973874000,2.5718740234375,8.151000022888184,-2.839050054550171,0.505050003528595
1752154083983727400,2.581727294921875,6.612000465393066,-3.9529502391815186,1.7860500812530518
1752154083993580500,2.59158056640625,9.031949996948242,-5.113950252532959,0.5790000557899475
1752154084003434000,2.60143408203125,8.06505012512207,-5.305950164794922,1.7710500955581665
1752154084013287400,2.611287353515625,8.32800006866455,-6.862050533294678,2.197050094604492
1752154084023140900,2.621140869140625,8.533950805664062,-8.566950798034668,3.5839502811431885
1752154084032994000,2.630994140625,8.146050453186035,-10.075050354003906,5.08305025100708
1752154084042847500,2.640847412109375,8.439000129699707,-11.032950401306152,4.635000228881836
1752154084052701200,2.650701171875,8.733000755310059,-11.380050659179688,4.386000156402588
1752154084062554400,2.660554443359375,8.9839506149292,-7.384050369262695,3.3730502128601074
1752154084072407800,2.67040771484375,10.744050979614258,-7.666050434112549,3.166950225830078
1752154084082261000,2.680260986328125,9.595050811767578,-7.201950550079346,4.122000217437744
1752154084092114400,2.690114501953125,9.063000679016113,-7.029000282287598,3.9910502433776855
1752154084101967600,2.699967529296875,7.893000602722168,-6.570000171661377,3.6820502281188965
1752154084111821000,2.709821044921875,7.423050403594971,-5.07105016708374,2.628000020980835
1752154084121674500,2.719674560546875,7.123950481414795,-1.968000054359436,2.69100022315979
1752154084131528000,2.72952783203125,8.659049987792969,0.7609500288963318,2.937000036239624
1752154084141381000,2.739381103515625,7.663050174713135,2.338050127029419,0.34905001521110535
1752154084151234600,2.749234619140625,8.07705020904541,2.121000051498413,0.6100500226020813
1752154084161088000,2.759087890625,8.5420503616333,0.16695000231266022,1.065000057220459
1752154084170941400,2.76894140625,8.998950004577637,-1.7950501441955566,2.209050178527832
1752154084180795000,2.778794921875,9.085050582885742,-2.1280500888824463,2.284050226211548
1752154084190648000,2.78864794921875,9.154050827026367,-2.997000217437744,1.798050045967102
1752154084200501500,2.79850146484375,9.916050910949707,-3.475950241088867,4.363950252532959
1752154084210354700,2.808354736328125,9.493950843811035,-3.007050037384033,3.5430002212524414
1752154084220208000,2.8182080078125,9.109050750732422,-3.0979502201080322,3.1309502124786377
1752154084230061600,2.8280615234375,9.079950332641602,-3.0240001678466797,3.1960501670837402
1752154084239915000,2.8379150390625,9.087000846862793,-2.7150001525878906,2.8510501384735107
1752154084249768400,2.8477685546875,9.255000114440918,-2.3749501705169678,2.728950023651123
1752154084259622000,2.857621826171875,9.292950630187988,-1.815000057220459,2.8180501461029053
1752154084269475000,2.86747509765625,9.292950630187988,-1.2690000534057617,2.7840001583099365
1752154084279328300,2.877328369140625,9.394050598144531,-1.7569501399993896,2.751000165939331
1752154084289182000,2.887181884765625,9.643050193786621,-2.449050188064575,2.6860501766204834
1752154084299035100,2.89703515625,11.37405014038086,-2.479950189590454,3.118950128555298
1752154084308888600,2.906888671875,8.854949951171875,-3.091050148010254,3.498000144958496
1752154084318741800,2.91674169921875,6.978000164031982,-0.7540500164031982,3.3319501876831055
1752154084328595200,2.92659521484375,8.568000793457031,2.227950096130371,3.6910502910614014
1752154084338448600,2.93644873046875,9.193050384521484,0.6049500107765198,5.242950439453125
1752154084348302000,2.946302001953125,10.360950469970703,0.3150000274181366,4.543950080871582
1752154084358155300,2.9561552734375,10.432950019836426,-0.1870500147342682,4.752000331878662
1752154084368008700,2.9660087890625,9.444000244140625,-0.5269500017166138,4.285050392150879
1752154084377862100,2.975862060546875,8.659049987792969,-0.23400001227855682,3.9400501251220703
1752154084387715300,2.98571533203125,7.82295036315918,-0.2659500241279602,3.4330501556396484
1752154084397568800,2.99556884765625,8.383950233459473,0.25095000863075256,4.422000408172607
1752154084407422200,3.005422119140625,8.95305061340332,0.8089500665664673,4.230000019073486
1752154084417275600,3.015275634765625,6.127950191497803,3.1960501670837402,3.325050115585327
1752154084427128800,3.02512890625,6.862950325012207,1.64205002784729,4.146000385284424
1752154084436982300,3.034982177734375,7.7749505043029785,2.1450002193450928,3.7009501457214355
1752154084446835700,3.044835693359375,8.826000213623047,1.1680500507354736,4.539000034332275
1752154084456689200,3.054689208984375,7.633950233459473,2.4940500259399414,4.35705041885376
1752154084466542300,3.064542236328125,5.455050468444824,2.4679501056671143,1.9290001392364502
1752154084476395800,3.074395751953125,6.552000522613525,1.891050100326538,2.130000114440918
1752154084486249200,3.084249267578125,4.921050071716309,2.5540502071380615,2.253000020980835
1752154084496102400,3.094102294921875,6.631050109863281,0.9930000305175781,3.4900500774383545
1752154084505955800,3.103955810546875,9.565950393676758,-1.3240500688552856,3.019050121307373
1752154084515809300,3.113809326171875,9.95205020904541,-0.46905001997947693,1.6560001373291016
1752154084525662700,3.123662841796875,10.699050903320312,-1.755000114440918,1.2469500303268433
1752154084535516000,3.133515869140625,10.584000587463379,-0.6529500484466553,1.1059499979019165
1752154084545369300,3.143369384765625,8.9170503616333,2.257050037384033,1.3789501190185547
1752154084555222800,3.153222900390625,7.323000431060791,2.868000030517578,0.9670500755310059
1752154084565076200,3.163076171875,5.785950183868408,1.9789501428604126,-0.5550000071525574
1752154084574929400,3.172929443359375,6.568950176239014,0.5929500460624695,-1.2799500226974487
1752154084584783000,3.182783203125,10.252950668334961,-4.120050430297852,0.22905001044273376
1752154084594636300,3.19263623046875,5.998950481414795,-4.305000305175781,-0.0880500078201294
1752154084604489500,3.202489501953125,9.295950889587402,-10.684950828552246,-0.9570000171661377
1752154084614343000,3.212343017578125,12.313050270080566,-17.623950958251953,1.5079500675201416
1752154084624196400,3.2221962890625,12.712050437927246,-20.617050170898438,7.213050365447998
1752154084634049800,3.2320498046875,9.115950584411621,-15.057001113891602,8.221050262451172
1752154084643903000,3.241903076171875,8.893950462341309,-11.539950370788574,4.44795036315918
1752154084653756400,3.25175634765625,8.67300033569336,-10.753050804138184,2.320050001144409
1752154084663609900,3.26160986328125,9.720000267028809,-10.647000312805176,1.7899501323699951
1752154084673463300,3.27146337890625,10.579050064086914,-9.448050498962402,1.1509500741958618
1752154084683316500,3.28131640625,10.768050193786621,-7.863000392913818,0.3469500243663788
1752154084693170200,3.291170166015625,10.222050666809082,-7.834050178527832,0.06195000186562538
1752154084703023400,3.3010234375,10.291950225830078,-7.618050575256348,-0.41895002126693726
1752154084712876800,3.310876708984375,10.071000099182129,-7.471950531005859,-0.7920000553131104
1752154084722730200,3.320730224609375,9.742950439453125,-7.411950588226318,-0.9190500378608704
1752154084732583700,3.330583740234375,9.058950424194336,-7.350000381469727,-0.6820500493049622
1752154084742436900,3.340436767578125,7.3560004234313965,-6.3760504722595215,-0.5190000534057617
1752154084752290300,3.350290283203125,5.509950160980225,-2.680950164794922,-1.4650501012802124
1752154084762143500,3.3601435546875,9.006000518798828,1.9960501194000244,-2.2260000705718994
1752154084771997000,3.369996826171875,11.31705093383789,5.568000316619873,-0.7939500212669373
1752154084781850400,3.379850341796875,9.207000732421875,4.908000469207764,0.4300500154495239
1752154084791703800,3.389703857421875,7.468950271606445,1.8139500617980957,1.3590000867843628
1752154084801557000,3.399556884765625,7.450050354003906,0.0499500036239624,1.2850500345230103
1752154084811410400,3.409410400390625,8.479050636291504,-1.5780000686645508,1.0120500326156616
1752154084821264000,3.419263916015625,8.704050064086914,-2.4780001640319824,0.8419500589370728
1752154084831117300,3.429117431640625,9.319950103759766,-3.061950206756592,1.4190000295639038
1752154084840970800,3.438970703125,9.637950897216797,-3.4429502487182617,1.4650501012802124
1752154084850824000,3.448823974609375,9.904050827026367,-3.9529502391815186,1.6110000610351562
1752154084860677400,3.458677490234375,10.165050506591797,-4.189949989318848,1.812000036239624
1752154084870530800,3.46853076171875,10.234050750732422,-4.317000389099121,1.951050043106079
1752154084880384300,3.47838427734375,10.179000854492188,-4.254000186920166,2.0149500370025635
1752154084890237400,3.488237548828125,9.70305061340332,-3.835050106048584,2.0269501209259033
1752154084900091000,3.4980908203125,9.16200065612793,-3.330000162124634,1.9009500741958618
1752154084909944300,3.5079443359375,8.776050567626953,-2.8060500621795654,1.7230501174926758
1752154084919797800,3.5177978515625,8.665950775146484,-2.3149502277374268,1.5010501146316528
1752154084929651200,3.527651123046875,8.746950149536133,-2.0299501419067383,1.4170501232147217
1752154084939504600,3.537504638671875,9.006000518798828,-1.9099501371383667,1.5490500926971436
1752154084949358000,3.547358154296875,9.25005054473877,-1.8550500869750977,1.6350001096725464
1752154084959211300,3.557211181640625,9.44895076751709,-1.9270501136779785,1.696950078010559
1752154084969064700,3.567064697265625,9.492000579833984,-2.101950168609619,1.7230501174926758
1752154084978918100,3.576918212890625,9.427050590515137,-2.2549500465393066,1.6780500411987305
1752154084988771300,3.586771240234375,9.303000450134277,-2.509050130844116,1.7449500560760498
1752154084998624800,3.596624755859375,9.232950210571289,-2.8249502182006836,1.8259501457214355
1752154085008478200,3.606478271484375,9.183000564575195,-3.0480000972747803,1.9009500741958618
1752154085018331600,3.61633154296875,9.232950210571289,-3.20805025100708,1.8960001468658447
1752154085028185000,3.62618505859375,9.135000228881836,-3.2370002269744873,1.7040001153945923
1752154085038038500,3.63603857421875,9.09000015258789,-3.14805006980896,1.5220500230789185
1752154085047892000,3.64589208984375,9.094950675964355,-3.0550501346588135,1.234950065612793
1752154085057745200,3.6557451171875,9.19005012512207,-2.92995023727417,0.9430500268936157
1752154085067598600,3.6655986328125,9.303000450134277,-2.8060500621795654,0.7920000553131104
1752154085087305500,3.685305419921875,9.468000411987305,-2.743950128555298,0.8280000686645508
1752154085097158700,3.69515869140625,9.475050926208496,-2.7649500370025635,0.8850000500679016
1752154085107012000,3.70501220703125,9.44895076751709,-2.8350000381469727,0.921000063419342
1752154085116865500,3.714865478515625,9.427050590515137,-2.8660502433776855,0.9450000524520874
1752154085126719000,3.724718994140625,9.43695068359375,-2.91795015335083,0.9790500402450562
1752154085136572200,3.734572265625,9.547050476074219,-2.932950258255005,1.0630500316619873
1752154085146425900,3.74442578125,9.619050025939941,-2.952000141143799,1.201050043106079
1752154085156279000,3.754279052734375,9.636000633239746,-2.989950180053711,1.390950083732605
1752154085166132200,3.76413232421875,9.571050643920898,-2.9260501861572266,1.527000069618225
1752154085175986000,3.77398583984375,9.42495059967041,-2.8630502223968506,1.636950135231018
1752154085185839400,3.78383935546875,9.346050262451172,-2.739000082015991,1.7160000801086426
1752154085195692500,3.793692626953125,9.336000442504883,-2.680950164794922,1.6900501251220703
1752154085205546000,3.8035458984375,9.370050430297852,-2.7120001316070557,1.7020500898361206
1752154085215399400,3.8133994140625,9.375,-2.8560001850128174,1.7710500955581665
1752154085225252900,3.8232529296875,9.407999992370605,-2.9539501667022705,1.8340500593185425
1752154085235106000,3.83310595703125,9.375,-3.0859501361846924,1.7929500341415405
1752154085244959500,3.84295947265625,9.316950798034668,-2.9830501079559326,1.6230000257492065
1752154085254813000,3.85281298828125,9.267000198364258,-2.899050235748291,1.429050087928772
1752154085264666400,3.862666259765625,9.229050636291504,-2.698050022125244,1.294950008392334
1752154085274519800,3.872519775390625,9.315000534057617,-2.5639500617980957,1.201050043106079
1752154085284373200,3.882373291015625,9.367950439453125,-2.4160501956939697,1.0699501037597656
1752154085294226400,3.892226318359375,9.471000671386719,-2.3580000400543213,0.9570000171661377
1752154085304080000,3.902079833984375,9.459000587463379,-2.2699501514434814,0.8260500431060791
1752154085313933600,3.91193359375,9.351000785827637,-2.284050226211548,0.7660500407218933
1752154085323786800,3.921786865234375,9.310050010681152,-2.3839499950408936,0.7230000495910645
1752154085333640200,3.93164013671875,9.432000160217285,-2.4400501251220703,0.6360000371932983
1752154085343493600,3.94149365234375,9.631050109863281,-2.5570502281188965,0.6390000581741333
1752154085353347000,3.95134716796875,9.96405029296875,-2.722050189971924,0.7800000309944153
1752154085363200300,3.9612001953125,10.383000373840332,-3.061950206756592,1.078950047492981
1752154085373053700,3.9710537109375,10.996050834655762,-3.567000150680542,1.3380000591278076
1752154085382907400,3.980907470703125,11.557950973510742,-4.180050373077393,1.683000087738037
1752154085392760600,3.990760498046875,12.00105094909668,-4.755000114440918,2.0680501461029053
1752154085402613800,4.00061376953125,12.082950592041016,-5.278950214385986,2.491950035095215
1752154085412467200,4.01046728515625,11.640000343322754,-5.820000171661377,2.889000177383423
1752154085422320600,4.020320556640625,11.050950050354004,-5.923050403594971,2.7769501209259033
1752154085432174000,4.030174072265625,10.273050308227539,-5.203050136566162,2.0269501209259033
1752154085442027500,4.040027587890625,9.46095085144043,-3.913950204849243,1.0049999952316284
1752154085451880700,4.049880615234375,8.692049980163574,-2.454000234603882,0.032999999821186066
1752154085461734400,4.059734375,8.086950302124023,-0.8350500464439392,-0.8299500346183777
1752154085471587600,4.069587646484375,7.663050174713135,0.4159500300884247,-1.5870001316070557
1752154085481441000,4.07944091796875,7.4760003089904785,1.125,-2.3530499935150146
1752154085491294200,4.089294189453125,7.371000289916992,1.2559500932693481,-2.722050189971924
1752154085501148000,4.09914794921875,7.021050453186035,1.078950047492981,-2.8060500621795654
1752154085511001000,4.1090009765625,6.688050270080566,0.7510500550270081,-2.382000207901001
1752154085520854500,4.1188544921875,6.624000549316406,0.31800001859664917,-1.6950000524520874
1752154085530708000,4.1287080078125,6.58305025100708,-0.10305000841617584,-0.7849500179290771
1752154085540561400,4.1385615234375,6.150000095367432,-0.27000001072883606,-0.1360500007867813
1752154085550414600,4.14841455078125,5.695050239562988,-0.0070500001311302185,0.14805001020431519
1752154085560268000,4.15826806640625,5.146050453186035,0.5089499950408936,0.286950021982193
1752154085570121500,4.16812158203125,4.771050453186035,0.9709500670433044,0.23205001652240753
1752154085579975000,4.177974853515625,4.5360002517700195,1.1700000762939453,0.21495001018047333
1752154085589828400,4.187828369140625,4.7470502853393555,1.2829500436782837,0.25995001196861267
1752154085599681800,4.197681884765625,5.173050403594971,1.1890500783920288,0.40905001759529114
1752154085609535200,4.20753515625,6.0420002937316895,0.820050060749054,0.6360000371932983
1752154085619388700,4.217388671875,8.0910005569458,-0.2749500274658203,1.180050015449524
1752154085629242000,4.2272421875,9.982950210571289,-3.2850000858306885,1.8979500532150269
1752154085639095300,4.23709521484375,10.998000144958496,-4.9870500564575195,2.518050193786621
1752154085648949000,4.246948974609375,12.111001014709473,-5.245950222015381,3.114000082015991
1752154085658802200,4.25680224609375,14.848051071166992,-5.692950248718262,3.706050157546997
1752154085668655600,4.266655517578125,19.735050201416016,-7.879050254821777,3.9810001850128174
1752154085678509000,4.276509033203125,22.831050872802734,-11.832000732421875,5.278950214385986
1752154085688362500,4.286362548828125,21.159000396728516,-14.128050804138184,6.001950263977051
1752154085698216000,4.2962158203125,16.147951126098633,-12.709050178527832,4.80495023727417
1752154085708069000,4.306069091796875,11.33595085144043,-9.478950500488281,3.3349502086639404
1752154085717922600,4.315922607421875,9.007950782775879,-6.8520002365112305,2.7430500984191895
1752154085727776000,4.32577587890625,8.980050086975098,-4.70205020904541,2.4150002002716064
1752154085737629400,4.33562939453125,9.636000633239746,-3.3040502071380615,2.3910000324249268
1752154085747483000,4.34548291015625,9.643050193786621,-2.3460001945495605,2.083050012588501
1752154085757336600,4.355336669921875,8.809950828552246,-0.6700500249862671,0.9480000734329224
1752154085767189500,4.365189453125,7.5259504318237305,0.8040000200271606,-0.4039500057697296
1752154085777043000,4.37504296875,5.767050266265869,1.4550000429153442,-1.1389501094818115
1752154085786896600,4.384896728515625,4.195950031280518,1.951050043106079,-1.6849501132965088
1752154085796749800,4.394749755859375,3.7189502716064453,2.1060001850128174,-1.867050051689148
1752154085806603300,4.404603271484375,4.296000003814697,1.8400501012802124,-1.9270501136779785
1752154085816456400,4.41445654296875,4.969050407409668,1.2250500917434692,-1.7590501308441162
1752154085826310100,4.42431005859375,5.518050193786621,0.6169500350952148,-1.6009501218795776
1752154085836163600,4.43416357421875,5.881050109863281,0.10500000417232513,-1.503000020980835
1752154085846016800,4.444016845703125,6.2910003662109375,-0.46905001997947693,-1.7230501174926758
1752154085855870200,4.4538701171875,6.621000289916992,-0.775950014591217,-2.1739501953125
1752154085865723600,4.4637236328125,6.973050117492676,-0.6990000605583191,-2.7240002155303955
1752154085875577000,4.4735771484375,7.150050163269043,-0.5239500403404236,-2.9659502506256104
1752154085885430500,4.483430419921875,7.72005033493042,-0.07605000585317612,-2.8969502449035645
1752154085895284000,4.493283935546875,9.145050048828125,0.5359500050544739,-2.518050193786621
1752154085905137400,4.503137451171875,11.08905029296875,0.11205000430345535,-1.8979500532150269
1752154085914990800,4.512990966796875,12.589950561523438,-2.5500001907348633,-0.24105000495910645
1752154085924844300,4.52284423828125,12.922950744628906,-5.013000011444092,1.8840000629425049
1752154085934697500,4.532697509765625,12.396000862121582,-6.157950401306152,3.198000192642212
1752154085944551000,4.542551025390625,11.641950607299805,-6.937950134277344,3.80400013923645
1752154085954404600,4.552404541015625,10.28895092010498,-7.197000503540039,4.003050327301025
1752154085964257800,4.5622578125,9.006000518798828,-6.8550004959106445,3.876000165939331
1752154085974111200,4.572111328125,8.908050537109375,-6.079050064086914,4.012050151824951
1752154085983964700,4.581964599609375,9.850950241088867,-4.9270501136779785,3.397050142288208
1752154085993818000,4.591818115234375,10.474050521850586,-3.5430002212524414,2.8729500770568848
1752154086003671300,4.60167138671875,10.371000289916992,-2.284050226211548,2.458050012588501
1752154086013524700,4.611524658203125,9.766950607299805,-1.5319501161575317,2.350950002670288
1752154086023378400,4.62137841796875,9.331950187683105,-1.420050024986267,1.8859500885009766
1752154086033231600,4.631231689453125,9.195000648498535,-1.9560000896453857,1.4380500316619873
1752154086043085000,4.6410849609375,9.193050384521484,-2.5309500694274902,1.2330000400543213
1752154086052938800,4.650938720703125,9.39900016784668,-3.0739500522613525,1.1080501079559326
1752154086062792000,4.6607919921875,9.39900016784668,-3.5269501209259033,0.24105000495910645
1752154086072645400,4.670645263671875,9.280950546264648,-3.4620001316070557,0.2440500110387802
1752154086082498800,4.680498779296875,9.16200065612793,-3.229950189590454,0.6409500241279602
1752154086092352300,4.690352294921875,9.313050270080566,-2.8750500679016113,0.7150500416755676
1752154086102205400,4.700205322265625,9.061050415039062,-2.2170000076293945,0.5719500184059143
1752154086112059000,4.710058837890625,9.022950172424316,-1.6230000257492065,0.9259500503540039
1752154086121912600,4.71991259765625,9.42495059967041,-1.6780500411987305,0.3949500322341919
1752154086131765800,4.729765869140625,9.724050521850586,-1.5370501279830933,-0.09000000357627869
1752154086141619200,4.739619140625,9.793950080871582,-1.699950098991394,-0.04305000230669975
1752154086151472600,4.74947265625,9.99000072479248,-1.798050045967102,-0.13095000386238098
1752154086161326000,4.759326171875,9.741000175476074,-1.9270501136779785,0.2530499994754791
1752154086171179500,4.769179443359375,10.01205062866211,-2.1760501861572266,0.6409500241279602
1752154086181032700,4.77903271484375,10.189050674438477,-2.004000186920166,0.7060500383377075
1752154086190886400,4.788886474609375,9.717000007629395,-1.9009500741958618,1.3639500141143799
1752154086200739600,4.798739501953125,9.925050735473633,-1.4530500173568726,1.204050064086914
1752154086210593000,4.808593017578125,9.856050491333008,-1.1299500465393066,1.194000005722046
1752154086220446500,4.818446533203125,9.766950607299805,-0.9690000414848328,1.2370500564575195
1752154086230300000,4.8282998046875,10.335000038146973,-0.7639500498771667,0.9049500226974487
1752154086240153300,4.8381533203125,10.129050254821777,-0.7680000066757202,1.2469500303268433
1752154086250006800,4.8480068359375,10.455000877380371,-0.7780500650405884,1.3810501098632812
1752154086259860200,4.857860107421875,10.110000610351562,-0.8470500111579895,2.0869500637054443
1752154086269713700,4.867713623046875,10.069050788879395,-0.7639500498771667,2.2450501918792725
1752154086279566800,4.87756689453125,9.853950500488281,-0.7129500508308411,2.710050106048584
1752154086289420500,4.887420654296875,9.729000091552734,-0.5770500302314758,2.8249502182006836
1752154086299274000,4.89727392578125,9.528000831604004,-0.4830000102519989,2.857950210571289
1752154086309127200,4.907127197265625,9.243000030517578,-0.49995002150535583,3.295950174331665
1752154086318980600,4.916980712890625,9.40095043182373,-0.5460000038146973,2.578050136566162
1752154086328834300,4.926834228515625,9.292950630187988,-0.5220000147819519,2.997000217437744
1752154086338687500,4.9366875,9.70305061340332,-0.6060000061988831,2.6760001182556152
1752154086348541000,4.946541015625,9.43695068359375,-0.6060000061988831,2.9440500736236572
1752154086358394400,4.956394287109375,10.312950134277344,-0.700950026512146,2.083050012588501
1752154086368247800,4.966247802734375,9.777000427246094,-0.6580500602722168,2.3940000534057617
1752154086378101200,4.976101318359375,10.309050559997559,-0.7800000309944153,2.098950147628784
1752154086387954700,4.98595458984375,9.98805046081543,-0.7950000166893005,1.659000039100647
1752154086397808000,4.99580810546875,9.949050903320312,-0.9070500135421753,1.924950122833252
1752154086407661600,5.00566162109375,9.942000389099121,-1.0320000648498535,1.1370000839233398
1752154086417515300,5.015515380859375,9.693000793457031,-1.1160000562667847,1.8019500970840454
1752154086427368400,5.025368408203125,9.886950492858887,-1.2570000886917114,1.1869500875473022
1752154086437222000,5.035221923828125,9.292950630187988,-1.276050090789795,1.9800001382827759
1752154086447075300,5.045075439453125,9.777000427246094,-1.374000072479248,1.1149500608444214
1752154086456928800,5.0549287109375,9.205050468444824,-1.2420001029968262,1.7470500469207764
1752154086466782200,5.0647822265625,9.793950080871582,-1.1950500011444092,0.9259500503540039
1752154086476635600,5.0746357421875,8.92905044555664,-1.0009500980377197,1.9170000553131104
1752154086486489000,5.084489013671875,9.874950408935547,-1.0249500274658203,0.9190500378608704
1752154086496342500,5.094342529296875,9.292950630187988,-0.9240000247955322,1.6110000610351562
1752154086506196000,5.104196044921875,10.062000274658203,-0.9619500637054443,1.1370000839233398
1752154086516049400,5.11404931640625,9.463050842285156,-0.9529500603675842,1.7430000305175781
1752154086525902800,5.12390283203125,10.25100040435791,-1.0960500240325928,1.0960500240325928
1752154086535756300,5.13375634765625,9.552000045776367,-1.0459500551223755,1.6560001373291016
1752154086545609700,5.143609619140625,10.191000938415527,-1.048050045967102,1.3590000867843628
1752154086555463200,5.153463134765625,9.334050178527832,-0.9340500235557556,2.1280500888824463
1752154086565316600,5.163316650390625,10.146000862121582,-0.7710000276565552,1.5130500793457031
1752154086575170000,5.173170166015625,9.484950065612793,-0.5359500050544739,2.0470499992370605
1752154086585023500,5.1830234375,10.003950119018555,-0.3730500042438507,1.9480501413345337
1752154086594877000,5.192876953125,9.243000030517578,-0.15300001204013824,2.4370501041412354
1752154086604730400,5.20273046875,9.897000312805176,0.010950000956654549,1.8889501094818115
1752154086614583600,5.21258349609375,9.327000617980957,0.20805001258850098,2.2960500717163086
1752154086624437000,5.22243701171875,9.925050735473633,0.23100000619888306,2.11395001411438
1752154086634290400,5.23229052734375,9.415050506591797,0.32505002617836,2.6430001258850098
1752154086644143900,5.242143798828125,10.039950370788574,0.21495001018047333,2.1880500316619873
1752154086653997300,5.251997314453125,9.790950775146484,0.22200001776218414,2.518050193786621
1752154086663850800,5.261850830078125,10.158000946044922,-0.04305000230669975,2.4870002269744873
1752154086673704200,5.2717041015625,9.72705078125,-0.07905000448226929,2.7910501956939697
1752154086683557600,5.2815576171875,10.12695026397705,-0.3850500285625458,2.350950002670288
1752154086693411000,5.2914111328125,10.090950012207031,-0.3829500079154968,2.431950092315674
1752154086703264500,5.301264404296875,10.2649507522583,-0.5190000534057617,2.3869500160217285
1752154086713118000,5.311117919921875,10.098000526428223,-0.46905001997947693,2.5849502086639404
1752154086722971600,5.3209716796875,10.13895034790039,-0.46905001997947693,2.2860000133514404
1752154086732824800,5.330824951171875,9.97800064086914,-0.34005001187324524,2.427000045776367
1752154086742678300,5.34067822265625,9.766950607299805,-0.0880500078201294,2.4660000801086426
1752154086752532000,5.350531982421875,9.837000846862793,-0.11205000430345535,2.6359500885009766
1752154086762385200,5.36038525390625,9.5110502243042,-0.18900001049041748,2.6140501499176025
1752154086772238600,5.370238525390625,9.858000755310059,-0.3540000021457672,2.422950029373169
1752154086782092300,5.38009228515625,9.463050842285156,-0.3349500298500061,2.4660000801086426
1752154086791945500,5.389945556640625,10.066950798034668,-0.5790000557899475,1.8169500827789307
1752154086801799000,5.399798828125,9.822000503540039,-0.5430000424385071,2.1739501953125
1752154086811652600,5.409652587890625,10.395000457763672,-0.6799500584602356,1.9390500783920288
1752154086821505800,5.419505859375,10.383000373840332,-0.5959500074386597,2.197050094604492
1752154086831359200,5.429359130859375,10.53795051574707,-0.7990500330924988,1.8240001201629639
1752154086841213000,5.439212890625,10.15095043182373,-0.9499500393867493,2.1259500980377197
1752154086851066000,5.449066162109375,9.660000801086426,-0.9889500737190247,2.0350501537323
1752154086860919600,5.45891943359375,9.657000541687012,-0.9000000357627869,1.9099501371383667
1752154086870773200,5.468773193359375,9.229050636291504,-0.6409500241279602,2.2380001544952393
1752154086880626400,5.47862646484375,9.72195053100586,-0.4039500057697296,1.7209501266479492
1752154086890479900,5.48847998046875,9.442049980163574,0.016050001606345177,2.299950122833252
1752154086900333600,5.49833349609375,9.946950912475586,0.2550000250339508,1.675950050354004
1752154086910186800,5.508186767578125,9.672000885009766,0.3270000219345093,2.514000177383423
1752154086920040200,5.518040283203125,9.316950798034668,0.1570500135421753,2.1570000648498535
1752154086929893600,5.5278935546875,9.17805004119873,-0.0499500036239624,2.3580000400543213
1752154086939747300,5.537747314453125,9.010950088500977,-0.2179500162601471,2.6040000915527344
1752154086949600800,5.547600830078125,9.4350004196167,-0.3540000021457672,2.5639500617980957
1752154086959454000,5.557453857421875,9.219000816345215,-0.14595000445842743,3.0930001735687256
1752154086969307400,5.567307373046875,9.949050903320312,-0.10500000417232513,2.770050048828125
1752154086979160800,5.577160888671875,10.066950798034668,0.10005000233650208,2.9440500736236572
1752154086989014500,5.5870146484375,9.969000816345215,0.04500000178813934,2.9659502506256104
1752154086998868000,5.596867919921875,10.186050415039062,-0.012000000104308128,2.770050048828125
1752154087008721200,5.60672119140625,10.050000190734863,-0.21300001442432404,3.007050037384033
1752154087018574800,5.616574951171875,10.28895092010498,-0.4069500267505646,2.620950222015381
1752154087028428300,5.62642822265625,9.748050689697266,-0.3040500283241272,3.2130000591278076
1752154087038281500,5.636281494140625,9.841950416564941,-0.44805002212524414,2.8510501384735107
1752154087048135200,5.64613525390625,9.861000061035156,-0.4140000343322754,2.6760001182556152
1752154087057988600,5.655988525390625,9.547050476074219,0.13095000386238098,3.088050127029419
1752154087067842000,5.665842041015625,9.873000144958496,0.1360500007867813,2.422950029373169
1752154087077695500,5.675695556640625,9.57300090789795,0.46095001697540283,2.877000093460083
1752154087087549000,5.685548828125,9.505950927734375,0.2749500274658203,2.616000175476074
1752154087097402000,5.695402099609375,9.471000671386719,0.06405000388622284,2.7580502033233643
1752154087107255600,5.705255615234375,9.481950759887695,0.10500000417232513,2.7310500144958496
1752154087117109200,5.715109130859375,10.048050880432129,-0.1770000010728836,2.1040501594543457
1752154087126962700,5.724962646484375,10.186050415039062,-0.037950001657009125,2.947050094604492
1752154087136815900,5.73481591796875,10.639050483703613,-0.4210500121116638,2.5420501232147217
1752154087146669600,5.744669677734375,10.962000846862793,-0.2970000207424164,2.7529501914978027
1752154087156523000,5.75452294921875,10.119000434875488,-0.15105000138282776,3.4830002784729004
1752154087166376400,5.76437646484375,10.507050514221191,-0.3540000021457672,2.7270002365112305
1752154087176230000,5.77422998046875,9.550050735473633,0.07304999977350235,3.355950117111206
1752154087186083300,5.784083251953125,9.279000282287598,-0.1770000010728836,2.788950204849243
1752154087195936800,5.793936767578125,8.884050369262695,0.04500000178813934,3.177000045776367
1752154087205790200,5.803790283203125,8.934000015258789,0.046950001269578934,2.5759501457214355
1752154087215643600,5.8136435546875,9.118950843811035,0.06599999964237213,2.140050172805786
1752154087225497000,5.8234970703125,8.92905044555664,0.48000001907348633,2.6830501556396484
1752154087235350500,5.8333505859375,9.681000709533691,0.2939999997615814,1.90500009059906
1752154087245204000,5.843203857421875,9.505950927734375,0.6889500617980957,2.359950065612793
1752154087255057400,5.853057373046875,9.454050064086914,0.5929500460624695,2.2789502143859863
1752154087264910800,5.862910888671875,9.913050651550293,0.4849500358104706,2.3940000534057617
1752154087274764300,5.872764404296875,9.655050277709961,0.3540000021457672,2.6479501724243164
1752154087284617700,5.88261767578125,9.811050415039062,0.08100000023841858,2.782050132751465
1752154087294471200,5.89247119140625,10.071000099182129,-0.028950002044439316,3.5620501041412354
1752154087304324900,5.902324951171875,10.558050155639648,-0.4210500121116638,3.186000108718872
1752154087314178000,5.912177978515625,10.705950736999512,-0.2850000262260437,3.7080001831054688
1752154087324031700,5.92203173828125,10.050000190734863,-0.1789500117301941,4.671000003814697
1752154087333885200,5.93188525390625,10.7920503616333,-0.5190000534057617,3.847050189971924
1752154087343738600,5.941738525390625,9.67905044555664,0.12105000764131546,4.515000343322754
1752154087353592000,5.951592041015625,10.207950592041016,-0.06000000238418579,3.699000120162964
1752154087363445500,5.961445556640625,9.73905086517334,0.286950021982193,4.122000217437744
1752154087373299000,5.971298828125,9.26205062866211,0.5040000081062317,3.495000123977661
1752154087383152400,5.98115234375,9.363000869750977,0.4159500300884247,3.7920002937316895
1752154087393005800,5.991005859375,9.547050476074219,0.6049500107765198,3.6289501190185547
1752154087402859300,6.000859375,9.468000411987305,0.7729500532150269,3.3199501037597656
1752154087412713000,6.010712890625,9.316950798034668,1.2130500078201294,3.2989501953125
1752154087422566100,6.020566162109375,10.00005054473877,0.9570000171661377,2.842050075531006
1752154087432419600,6.030419677734375,9.57300090789795,1.3300501108169556,2.842050075531006
1752154087442273000,6.04027294921875,9.391950607299805,1.3620001077651978,2.6449501514434814
1752154087452126500,6.05012646484375,9.490050315856934,1.1700000762939453,2.9950501918792725
1752154087461980000,6.05997998046875,10.027950286865234,0.6790500283241272,2.63100004196167
1752154087471833600,6.06983349609375,10.066950798034668,0.49995002150535583,2.593050241470337
1752154087481687000,6.07968701171875,10.218000411987305,0.0690000057220459,3.0349502563476562
1752154087491540500,6.08954052734375,10.285050392150879,-0.07905000448226929,2.76705002784729
1752154087501394000,6.099393798828125,9.340950012207031,0.21000000834465027,3.1960501670837402
1752154087511247400,6.109247314453125,9.231000900268555,0.06599999964237213,3.1459500789642334
1752154087521100800,6.119100830078125,9.006000518798828,0.13305000960826874,3.307950258255005
1752154087530954200,6.128954345703125,9.103950500488281,0.4230000078678131,2.9830501079559326
1752154087540807700,6.1388076171875,9.037050247192383,0.8640000224113464,2.619000196456909
1752154087550661000,6.1486611328125,9.562050819396973,1.194000005722046,2.4660000801086426
1752154087560514600,6.1585146484375,9.693000793457031,1.540950059890747,2.281050205230713
1752154087570368000,6.168367919921875,9.463050842285156,1.7449500560760498,2.751000165939331
1752154087580221400,6.178221435546875,8.901000022888184,1.6300500631332397,3.3610501289367676
1752154087590075000,6.188074951171875,9.655050277709961,1.0380001068115234,3.000000238418579
1752154087599928600,6.197928466796875,9.628950119018555,0.5089499950408936,2.899050235748291
1752154087609782000,6.207781982421875,10.060050010681152,-0.23400001227855682,3.1579501628875732
1752154087619635700,6.2176357421875,10.13895034790039,-0.9139500260353088,3.367950201034546
1752154087629489000,6.227489013671875,10.639050483703613,-1.599000096321106,3.205050230026245
1752154087639342300,6.23734228515625,9.648000717163086,-1.7359501123428345,3.6820502281188965
1752154087649196000,6.247196044921875,9.490050315856934,-2.2240500450134277,3.868950128555298
1752154087659049200,6.25704931640625,9.26205062866211,-2.3460001945495605,3.724950075149536
1752154087668902700,6.266902587890625,9.058950424194336,-2.203050136566162,3.3520500659942627
1752154087678756400,6.27675634765625,9.091950416564941,-2.0329501628875732,2.76705002784729
1752154087688609500,6.286609619140625,9.277050018310547,-1.8460501432418823,2.095050096511841
1752154087698463000,6.296462890625,9.21405029296875,-1.5370501279830933,1.5610500574111938
1752154087708316400,6.30631640625,9.130949974060059,-1.276050090789795,1.3759500980377197
1752154087718170000,6.316170166015625,9.055950164794922,-1.446000099182129,1.8409501314163208
1752154087728023300,6.326023193359375,9.67905044555664,-1.4700000286102295,1.3980001211166382
1752154087737876700,6.335876708984375,9.753000259399414,-1.1590501070022583,2.0299501419067383
1752154087747730400,6.34573046875,10.102950096130371,-1.0030500888824463,2.0749499797821045
1752154087757583600,6.35558349609375,11.083950996398926,-0.9220500588417053,2.158950090408325
1752154087767437300,6.365437255859375,10.407000541687012,-0.9100500345230103,2.4660000801086426
1752154087777290800,6.375290771484375,10.809000968933105,-0.9790500402450562,2.3959500789642334
1752154087787144200,6.385144287109375,10.354050636291504,-1.1320500373840332,2.9250001907348633
1752154087796997600,6.39499755859375,10.584000587463379,-1.218000054359436,2.3460001945495605
1752154087806851000,6.40485107421875,9.528000831604004,-0.7800000309944153,2.6430001258850098
1752154087816704500,6.41470458984375,8.580000877380371,-0.2779500186443329,3.189000129699707
1752154087826558000,6.424557861328125,8.671050071716309,-0.004950000438839197,3.2989501953125
1752154087836411600,6.43441162109375,8.067000389099121,0.31005001068115234,3.907050132751465
1752154087846265000,6.44426513671875,8.647050857543945,0.29100000858306885,3.838050127029419
1752154087856118500,6.454118408203125,9.199950218200684,0.4420500099658966,3.6700501441955566
1752154087865972000,6.463971923828125,8.949000358581543,0.4210500121116638,4.048050403594971
1752154087875825400,6.473825439453125,9.684000015258789,0.3150000274181366,3.38700008392334
1752154087895532300,6.4935322265625,9.166050910949707,-0.37800002098083496,3.9379501342773438
1752154087905385700,6.5033857421875,10.26300048828125,-0.6439500451087952,2.839050054550171
1752154087915239200,6.5132392578125,9.145050048828125,-0.6319500207901001,3.6510002613067627
1752154087925092900,6.5230927734375,9.484950065612793,-1.1539500951766968,3.126000165939331
1752154087934946000,6.532946044921875,9.98805046081543,-1.3050000667572021,2.722050189971924
1752154087944799700,6.5427998046875,9.115950584411621,-1.5319501161575317,3.355950117111206
1752154087954653200,6.552653076171875,9.9660005569458,-1.5630000829696655,2.2240500450134277
1752154087964506400,6.56250634765625,10.003950119018555,-1.1869500875473022,1.7860500812530518
1752154087974360000,6.572360107421875,9.187950134277344,-0.9649500250816345,2.2759501934051514
1752154087984213500,6.582213623046875,10.062000274658203,-0.9480000734329224,1.8340500593185425
1752154087994067000,6.59206689453125,10.359000205993652,-0.7969500422477722,1.735050082206726
1752154088003920600,6.601920654296875,9.022950172424316,-0.5290500521659851,2.5879502296447754
1752154088013773800,6.61177392578125,9.850950241088867,-0.45000001788139343,1.812000036239624
1752154088023627300,6.621627197265625,9.358050346374512,-0.2939999997615814,2.11395001411438
1752154088033481000,6.63148095703125,8.623050689697266,-0.4620000123977661,2.728950023651123
1752154088043334100,6.641334228515625,9.328950881958008,-0.661050021648407,2.269050121307373
1752154088053187600,6.6511875,9.5110502243042,-0.9019500613212585,2.4750001430511475
1752154088063041300,6.661041259765625,8.769000053405762,-1.120050072669983,3.2250001430511475
1752154088072894700,6.670894775390625,9.97095012664795,-1.1730000972747803,2.5279500484466553
1752154088082748200,6.680748046875,10.21500015258789,-0.9910500645637512,2.830050230026245
1752154088092601600,6.6906015625,9.70995044708252,-0.9289500713348389,3.378000259399414
1752154088102455000,6.700455078125,10.462050437927246,-1.2690000534057617,2.892000198364258
1752154088112308500,6.71030859375,10.572000503540039,-1.1869500875473022,2.9250001907348633
1752154088122162000,6.720161865234375,9.001049995422363,-0.984000027179718,3.9240002632141113
1752154088132015600,6.730015625,8.817000389099121,-0.7900500297546387,3.676950216293335
1752154088141868800,6.739868896484375,8.866950035095215,-0.7440000176429749,3.5239500999450684
1752154088151722500,6.749722412109375,8.295000076293945,-0.9960000514984131,3.9310503005981445
1752154088161576000,6.759575927734375,8.565000534057617,-1.2420001029968262,3.5209500789642334
1752154088171429400,6.769429443359375,9.985050201416016,-1.276050090789795,2.133000135421753
1752154088181283000,6.779282958984375,9.657000541687012,-1.1080501079559326,2.5830001831054688
1752154088191136300,6.78913623046875,9.025050163269043,-1.0339500904083252,2.760000228881836
1752154088200989700,6.79898974609375,9.844050407409668,-0.6060000061988831,1.951050043106079
1752154088210843100,6.808843017578125,9.880050659179688,-0.21000000834465027,1.9990501403808594
1752154088220696800,6.81869677734375,8.970000267028809,-0.05700000375509262,2.6520001888275146
1752154088230550000,6.828550048828125,9.232950210571289,-0.4930500090122223,2.5639500617980957
1752154088240403700,6.83840380859375,10.519050598144531,-0.7560000419616699,2.020050048828125
1752154088250257200,6.848257080078125,9.760050773620605,-1.1269500255584717,2.6929500102996826
1752154088260110600,6.858110595703125,9.175950050354004,-1.3549500703811646,3.201000213623047
1752154088269964300,6.86796435546875,10.495050430297852,-1.6660500764846802,2.6740500926971436
1752154088279817700,6.877817626953125,10.52400016784668,-1.7910001277923584,3.3799500465393066
1752154088289671200,6.887671142578125,10.890000343322754,-1.8840000629425049,3.925950288772583
1752154088299524600,6.897524658203125,12.574050903320312,-2.1859500408172607,3.6150002479553223
1752154088309378000,6.9073779296875,12.757950782775879,-2.2890000343322754,3.1720502376556396
1752154088319231200,6.917231201171875,11.95305061340332,-2.1310501098632812,2.797950029373169
1752154088329085000,6.9270849609375,11.6089506149292,-2.0440499782562256,1.9339500665664673
1752154088338938400,6.9369384765625,11.593950271606445,-2.041949987411499,0.9960000514984131
1752154088348791800,6.946791748046875,10.404000282287598,-1.798050045967102,1.0549499988555908
1752154088358645500,6.9566455078125,8.446050643920898,-1.1989500522613525,1.599000096321106
1752154088368498700,6.966498779296875,7.600950241088867,-0.5029500126838684,1.5130500793457031
1752154088378352400,6.976352294921875,7.455000400543213,0.16005000472068787,1.221000075340271
1752154088388205800,6.986205810546875,6.910950183868408,0.5809500217437744,1.3669500350952148
1752154088398059300,6.996059326171875,6.724050521850586,0.7339500188827515,1.1509500741958618
1752154088407912700,7.00591259765625,7.648050308227539,0.6940500140190125,0.3540000021457672
1752154088417766100,7.01576611328125,7.273050308227539,0.6619500517845154,0.4300500154495239
1752154088427619600,7.02561962890625,6.1020002365112305,0.4759500324726105,0.7200000286102295
1752154088437473000,7.03547314453125,6.151950359344482,0.21000000834465027,0.2460000067949295
1752154088447326500,7.045326416015625,6.12600040435791,0.1960500031709671,0.07905000448226929
1752154088457180000,7.055179931640625,3.873000144958496,0.33000001311302185,1.0579500198364258
1752154088467033300,7.065033447265625,4.597949981689453,0.5400000214576721,0.11400000751018524
1752154088476887000,7.074886962890625,5.436000347137451,0.9450000524520874,-0.004050000105053186
1752154088486740500,7.084740478515625,3.9130501747131348,0.820050060749054,1.4940000772476196
1752154088496594000,7.094593994140625,4.878000259399414,0.6100500226020813,0.9690000414848328
1752154088506447600,7.104447509765625,4.471050262451172,0.34905001521110535,1.7329500913619995
1752154088516300800,7.11430078125,4.087950229644775,-0.18195000290870667,2.073000192642212
1752154088526154200,7.124154296875,5.7019500732421875,-0.505050003528595,1.5220500230789185
1752154088536008000,7.134008056640625,7.033050537109375,-0.5820000171661377,1.960050106048584
1752154088545861000,7.143861083984375,9.672000885009766,-1.5660001039505005,2.0250000953674316
1752154088555714600,7.153714599609375,12.873000144958496,-4.3090500831604,2.680950164794922
1752154088565568300,7.163568359375,15.595050811767578,-7.225950241088867,4.32105016708374
1752154088575421700,7.173421630859375,16.878000259399414,-9.507000923156738,4.611000061035156
1752154088585275100,7.183275146484375,13.347001075744629,-10.915050506591797,4.831050395965576
1752154088595128600,7.193128662109375,12.142951011657715,-9.07395076751709,2.329050064086914
1752154088604982000,7.20298193359375,13.309050559997559,-7.776000499725342,0.9450000524520874
1752154088614835700,7.212835693359375,14.05095100402832,-9.505050659179688,1.024049997329712
1752154088624689200,7.222689208984375,16.759050369262695,-10.19895076751709,0.28200000524520874
1752154088634542600,7.23254248046875,15.508951187133789,-10.051050186157227,2.2360501289367676
1752154088644396000,7.24239599609375,14.803050994873047,-9.081000328063965,4.045950412750244
1752154088654249500,7.25224951171875,12.898950576782227,-7.494000434875488,4.338000297546387
1752154088664103000,7.26210302734375,10.636950492858887,-5.811000347137451,3.9400501251220703
1752154088673956600,7.27195654296875,8.848050117492676,-3.6919500827789307,2.140050172805786
1752154088683810000,7.28181005859375,8.070000648498535,-2.3490002155303955,1.2370500564575195
1752154088693663200,7.291663330078125,7.69605016708374,-1.4239500761032104,0.0880500078201294
1752154088703517000,7.301516845703125,6.89400053024292,-0.6679500341415405,-1.429050087928772
1752154088713370400,7.311370361328125,5.095950126647949,0.7440000176429749,-0.29205000400543213
1752154088723223800,7.321223876953125,4.6720499992370605,2.209050178527832,-1.3669500350952148
1752154088733077200,7.3310771484375,3.6690001487731934,2.2950000762939453,-0.4300500154495239
1752154088742930700,7.3409306640625,4.276950359344482,1.2850500345230103,-0.33195000886917114
1752154088752784100,7.3507841796875,5.149050235748291,0.544950008392334,-0.544950008392334
1752154088762637800,7.360637939453125,6.262050151824951,-0.364050030708313,-1.0360500812530518
1752154088772491300,7.3704912109375,6.484950542449951,-0.7639500498771667,-1.3620001077651978
1752154088782344700,7.3803447265625,6.979950428009033,-0.8230500221252441,-1.27305006980896
1752154088792198100,7.3901982421875,8.143950462341309,-0.7279500365257263,-1.6870501041412354
1752154088802051600,7.400051513671875,10.581000328063965,-0.07395000010728836,-1.9920001029968262
1752154088811905000,7.409905029296875,13.114950180053711,0.6070500016212463,-1.5940500497817993
1752154088821758700,7.4197587890625,16.464000701904297,-0.9810000658035278,-0.9310500621795654
1752154088831612000,7.42961181640625,17.221050262451172,-3.5119502544403076,0.7750500440597534
1752154088841465300,7.43946533203125,15.082950592041016,-4.831050395965576,2.809950113296509
1752154088851319000,7.449319091796875,13.050000190734863,-5.188050270080566,4.585050106048584
1752154088861172500,7.45917236328125,11.26395034790039,-5.028000354766846,5.410950183868408
1752154088871026000,7.46902587890625,9.432000160217285,-4.123050212860107,6.049950122833252
1752154088880879400,7.47887939453125,8.998950004577637,-2.9880001544952393,7.153950214385986
1752154088890732800,7.48873291015625,9.391950607299805,-2.0470499992370605,7.174950122833252
1752154088900586200,7.498586181640625,9.052050590515137,-0.9739500284194946,7.3690505027771
1752154088910440000,7.50843994140625,9.098999977111816,0.021000001579523087,6.724950313568115
1752154088920293400,7.51829345703125,8.344950675964355,1.1920500993728638,5.808000087738037
1752154088930146800,7.528146728515625,7.668000221252441,2.322000026702881,4.6180500984191895
1752154088940000300,7.538000244140625,6.724050521850586,3.138000249862671,3.759000062942505
1752154088949854000,7.54785400390625,6.6499505043029785,3.3199501037597656,2.8150501251220703
1752154088959707100,7.55770703125,7.107000350952148,2.7960002422332764,1.6639500856399536
1752154088969560800,7.567560791015625,6.933000564575195,2.182950019836426,1.4860501289367676
1752154088979414000,7.5774140625,7.5259504318237305,1.0500000715255737,0.9400500655174255
1752154088989267500,7.587267333984375,7.119000434875488,0.23100000619888306,1.543950080871582
1752154088999121200,7.59712109375,7.750950336456299,-0.4069500267505646,1.7449500560760498
1752154089008974600,7.606974609375,7.564950466156006,-1.0249500274658203,2.4180002212524414
1752154089018828000,7.616828125,8.910000801086426,-1.675950050354004,1.6680001020431519
1752154089028681700,7.626681640625,8.197050094604492,-1.6300500631332397,2.1760501861572266
1752154089038535000,7.636534912109375,9.451050758361816,-1.5229500532150269,1.9099501371383667
1752154089048388900,7.646388916015625,9.850950241088867,-1.615950107574463,1.5580500364303589
1752154089058242000,7.656241943359375,10.759050369262695,-1.5130500793457031,1.3039500713348389
1752154089068095500,7.666095458984375,11.068050384521484,-1.5940500497817993,0.6679500341415405
1752154089077949200,7.67594921875,10.878000259399414,-1.276050090789795,0.814050018787384
1752154089087802400,7.68580224609375,10.869000434875488,-1.3170000314712524,0.6820500493049622
1752154089097656000,7.695656005859375,10.366050720214844,-1.0920000076293945,1.4770500659942627
1752154089107509500,7.705509521484375,11.118000984191895,-1.3069500923156738,1.201050043106079
1752154089117363000,7.715363037109375,10.479000091552734,-1.1350500583648682,1.807050108909607
1752154089127216400,7.72521630859375,10.528950691223145,-1.2520500421524048,2.004000186920166
1752154089137070000,7.735070068359375,9.451050758361816,-1.3410000801086426,2.461050033569336
1752154089146923500,7.744923583984375,9.049050331115723,-1.6180500984191895,2.209050178527832
1752154089156777000,7.75477685546875,8.178000450134277,-1.8460501432418823,1.9030500650405884
1752154089166630700,7.764630615234375,8.31195068359375,-1.8460501432418823,1.7740501165390015
1752154089176483800,7.77448388671875,8.022000312805176,-1.852950096130371,1.8619500398635864
1752154089186337300,7.784337158203125,8.779050827026367,-1.6230000257492065,1.8220500946044922
1752154089196191000,7.79419091796875,9.604950904846191,-1.4170501232147217,1.4530500173568726
1752154089206044200,7.804044189453125,9.982950210571289,-1.3210500478744507,1.503000020980835
1752154089215897900,7.81389794921875,10.356000900268555,-1.0170000791549683,1.218000054359436
1752154089225751300,7.823751220703125,10.641000747680664,-0.8860500454902649,1.8840000629425049
1752154089235604700,7.833604736328125,12.243000984191895,-1.1059499979019165,2.2759501934051514
1752154089245458400,7.84345849609375,11.881950378417969,-1.258950114250183,3.129000186920166
1752154089255312000,7.853311767578125,12.235950469970703,-1.3210500478744507,3.390000104904175
1752154089265165300,7.863165283203125,11.96505069732666,-1.4389500617980957,3.487950086593628
1752154089275018800,7.873018798828125,12.379950523376465,-1.9750500917434692,3.535950183868408
1752154089284872200,7.8828720703125,10.849950790405273,-2.155050039291382,3.718050241470337
1752154089294725600,7.8927255859375,10.060050010681152,-2.332050085067749,4.194000244140625
1752154089304579300,7.902579345703125,9.568950653076172,-2.593050241470337,4.318950176239014
1752154089314432800,7.912432861328125,9.657000541687012,-2.6890501976013184,3.7129502296447754
1752154089324286200,7.9222861328125,9.841950416564941,-2.7799501419067383,3.3109500408172607
1752154089334139600,7.9321396484375,9.544950485229492,-2.8780500888824463,3.8179502487182617
1752154089343993000,7.9419931640625,9.769950866699219,-3.306000232696533,4.077000141143799
1752154089353846800,7.9518466796875,9.241050720214844,-3.697050094604492,4.663950443267822
1752154089363700200,7.9617001953125,9.322050094604492,-4.2210001945495605,4.378950119018555
1752154089373553700,7.9715537109375,9.223950386047363,-4.41195011138916,3.5239500999450684
1752154089383407000,7.981406982421875,9.367950439453125,-4.426949977874756,2.3389501571655273
1752154089393260500,7.991260498046875,9.504000663757324,-4.563000202178955,0.909000039100647
1752154089403114000,8.001114013671875,9.098999977111816,-4.611000061035156,0.2939999997615814
1752154089412967700,8.0109677734375,9.283950805664062,-4.173000335693359,-0.7110000252723694
1752154089422821000,8.020821044921876,8.530050277709961,-3.570000171661377,-0.7180500626564026
1752154089432674600,8.030674560546874,8.178000450134277,-2.9040000438690186,-0.5790000557899475
1752154089442528300,8.0405283203125,8.197050094604492,-2.350950002670288,-0.09495000541210175
1752154089452381400,8.05038134765625,8.407050132751465,-1.7640000581741333,0.24105000495910645
1752154089462235100,8.060235107421875,8.12700080871582,-1.2660000324249268,0.9480000734329224
1752154089472088600,8.070088623046875,7.7989501953125,-1.3759500980377197,1.5460500717163086
1752154089481942000,8.07994189453125,7.552950382232666,-1.5229500532150269,1.1149500608444214
1752154089491795500,8.08979541015625,7.099950313568115,-1.5559500455856323,0.5260500311851501
1752154089501649200,8.099649169921875,7.063950538635254,-1.4100000858306885,0.5290500521659851
1752154089511502300,8.10950244140625,7.062000274658203,-1.5490500926971436,0.9400500655174255
1752154089521356000,8.11935595703125,7.692000389099121,-1.696950078010559,1.5700501203536987
1752154089531209500,8.12920947265625,7.7989501953125,-1.9560000896453857,1.8600001335144043
1752154089541063000,8.13906298828125,7.761000156402588,-1.5660001039505005,1.711050033569336
1752154089550916400,8.148916259765626,7.723050594329834,-1.2469500303268433,1.5730500221252441
1752154089560770000,8.15877001953125,8.257050514221191,-0.8070000410079956,1.0069500207901
1752154089570623200,8.168623291015624,8.455050468444824,-0.6799500584602356,0.9480000734329224
1752154089580477000,8.178476806640624,8.500950813293457,-0.49995002150535583,1.180050015449524
1752154089590330400,8.188330322265625,8.278050422668457,-0.6559500098228455,1.6009501218795776
1752154089600183800,8.198183837890625,8.27595043182373,-0.700950026512146,1.503000020980835
1752154089610037200,8.208037353515625,8.51294994354248,-0.8590500354766846,1.4770500659942627
1752154089619891000,8.217890869140625,8.604000091552734,-0.7849500179290771,1.8190500736236572
1752154089629744400,8.227744384765625,8.886000633239746,-0.7990500330924988,2.1690001487731934
1752154089639598000,8.23759814453125,9.664050102233887,-0.7350000143051147,2.4370501041412354
1752154089649451300,8.247451171875,10.713000297546387,-0.7710000276565552,2.82705020904541
1752154089659304700,8.2573046875,11.083950996398926,-0.7560000419616699,3.454050064086914
1752154089669158400,8.267158447265626,11.31705093383789,-0.9000000357627869,3.6010501384735107
1752154089679011800,8.27701171875,11.053050994873047,-1.2280501127243042,3.390000104904175
1752154089688865000,8.286864990234376,10.830000877380371,-1.3260000944137573,3.4230000972747803
1752154089698718700,8.29671875,10.395000457763672,-1.237950086593628,3.8110501766204834
1752154089708572200,8.306572265625,10.455000877380371,-1.1299500465393066,3.95205020904541
1752154089718425900,8.31642578125,9.232950210571289,-1.0320000648498535,4.615950107574463
1752154089728279300,8.326279296875,9.439050674438477,-0.8380500674247742,4.342950344085693
1752154089738132700,8.3361328125,8.533950805664062,-0.8520000576972961,4.477050304412842
1752154089747986400,8.345986328125,9.219000816345215,-0.9019500613212585,3.793950080871582
1752154089757839600,8.355839599609375,8.92905044555664,-1.2229501008987427,3.1530001163482666
1752154089767693300,8.365693359375,9.315000534057617,-1.5229500532150269,2.6140501499176025
1752154089777546800,8.375546630859375,9.037050247192383,-1.7760001420974731,2.748000144958496
1752154089787400200,8.385400146484375,9.5110502243042,-1.7910001277923584,2.5159502029418945
1752154089797253600,8.395253662109376,9.559050559997559,-1.9890000820159912,2.5540502071380615
1752154089807107300,8.405107421875,10.218000411987305,-2.4370501041412354,2.158950090408325
1752154089816960500,8.41496044921875,10.207950592041016,-2.839050054550171,2.133000135421753
1752154089826814200,8.424814208984374,10.929000854492188,-3.1150500774383545,1.4530500173568726
1752154089836667600,8.434667724609374,10.452000617980957,-3.1960501670837402,1.3260000944137573
1752154089846521000,8.44452099609375,10.440000534057617,-3.1600501537323,1.3309500217437744
1752154089856374500,8.45437451171875,9.754950523376465,-2.950050115585327,1.6519501209259033
1752154089866228200,8.464228271484375,9.316950798034668,-2.6430001258850098,1.4580000638961792
1752154089876081400,8.474081298828125,8.359950065612793,-2.0680501461029053,1.582050085067749
1752154089885935000,8.48393505859375,7.741950511932373,-1.5610500574111938,1.7740501165390015
1752154089895788500,8.49378857421875,7.420950412750244,-1.2619500160217285,2.16195011138916
1752154089905642000,8.50364208984375,7.621950149536133,-1.2090001106262207,1.9650001525878906
1752154089915495700,8.51349560546875,7.975950241088867,-1.048050045967102,1.5390000343322754
1752154089925349000,8.52334912109375,7.858950138092041,-1.234950065612793,1.8409501314163208
1752154089935202600,8.53320263671875,8.68005084991455,-1.6639500856399536,1.90500009059906
1752154089945056300,8.54305615234375,9.147000312805176,-2.101950168609619,2.0629501342773438
1752154089954909400,8.552909423828124,9.396000862121582,-2.442000150680542,2.3149502277374268
1752154089964763000,8.562762939453124,9.292950630187988,-2.683950185775757,2.6430001258850098
1752154089974616600,8.572616455078125,9.532950401306152,-2.8849501609802246,2.0749499797821045
1752154089984470000,8.582469970703125,9.648000717163086,-2.8660502433776855,1.3860000371932983
1752154089994323200,8.5923232421875,9.229050636291504,-2.6959500312805176,1.2469500303268433
1752154090004177000,8.602177001953125,9.336000442504883,-2.389050006866455,1.3240500688552856
1752154090014030300,8.6120302734375,8.850000381469727,-1.8630000352859497,2.1229500770568848
1752154090023884000,8.621884033203125,9.169050216674805,-1.1490000486373901,1.7830500602722168
1752154090033737500,8.631737548828125,9.1399507522583,-1.081950068473816,2.3650500774383545
1752154090043591000,8.6415908203125,9.874950408935547,-1.1970000267028809,1.90500009059906
1752154090053444400,8.6514443359375,10.114950180053711,-1.3840500116348267,1.9960501194000244
1752154090063298000,8.661298095703126,10.641000747680664,-1.5580500364303589,1.8139500617980957
1752154090073151200,8.671151123046876,10.693950653076172,-1.9009500741958618,2.202000141143799
1752154090083005000,8.6810048828125,10.974000930786133,-2.212050199508667,2.16195011138916
1752154090092858400,8.6908583984375,10.23705005645752,-2.1499500274658203,2.530050039291382
1752154090102712000,8.700712158203125,9.466050148010254,-2.25,3.3160500526428223
1752154090112565500,8.7105654296875,8.908050537109375,-2.302950143814087,3.7920002937316895
1752154090122418700,8.720418701171875,8.677950859069824,-2.3839499950408936,3.7540502548217773
1752154090132272000,8.730272216796875,8.282999992370605,-1.9440001249313354,3.166950225830078
1752154090142125800,8.740125732421875,7.7440505027771,-1.7569501399993896,3.220050096511841
1752154090151979300,8.749979248046875,8.105999946594238,-1.4239500761032104,2.491950035095215
1752154090161833000,8.7598330078125,8.166000366210938,-0.9430500268936157,1.9560000896453857
1752154090171686400,8.769686279296875,8.677950859069824,-0.4740000367164612,2.110949993133545
1752154090181539800,8.779539794921876,9.901050567626953,-0.2580000162124634,2.2740001678466797
1752154090191393500,8.7893935546875,10.584000587463379,-0.46905001997947693,2.8849501609802246
1752154090201247000,8.7992470703125,11.725950241088867,-0.6799500584602356,2.518050193786621
1752154090211100200,8.80910009765625,11.439000129699707,-0.895050048828125,3.0670502185821533
1752154090220953900,8.818953857421874,12.267000198364258,-1.1899501085281372,2.4079501628875732
1752154090230807300,8.828807373046875,11.03895092010498,-1.429050087928772,2.2290000915527344
1752154090240660700,8.83866064453125,9.921000480651855,-1.76895010471344,2.76705002784729
1752154090250514400,8.848514404296875,8.797950744628906,-1.8409501314163208,3.0019500255584717
1752154090260367600,8.85836767578125,8.347949981689453,-1.9650001525878906,3.3730502128601074
1752154090270221300,8.86822119140625,8.664000511169434,-2.013000011444092,2.857950210571289
1752154090280074800,8.87807470703125,8.773950576782227,-2.382000207901001,3.2250001430511475
1752154090289928200,8.88792822265625,10.153050422668457,-2.5690500736236572,2.4060001373291016
1752154090299782000,8.897781982421876,10.27500057220459,-2.5230000019073486,2.611950159072876
1752154090309635300,8.90763525390625,11.242050170898438,-2.3269500732421875,2.1040501594543457
1752154090319488500,8.917488525390626,11.293050765991211,-2.3959500789642334,2.02305006980896
1752154090329342500,8.927342529296874,11.122950553894043,-2.3839499950408936,1.6200001239776611
1752154090339196000,8.93719580078125,10.57395076751709,-2.0680501461029053,1.0549499988555908
1752154090349049300,8.94704931640625,9.055950164794922,-1.9009500741958618,1.8550500869750977
1752154090358902800,8.95690283203125,8.56095027923584,-1.752000093460083,1.2420001029968262
1752154090368756200,8.966756103515625,7.3969502449035645,-1.1989500522613525,1.812000036239624
1752154090378609700,8.976609619140625,7.026000499725342,-0.7350000143051147,1.88100004196167
1752154090388463400,8.98646337890625,7.489950180053711,-0.6409500241279602,1.9290001392364502
1752154090398316500,8.996316650390625,8.023950576782227,-0.9529500603675842,1.90500009059906
1752154090408170200,9.006170166015625,9.396000862121582,-1.4770500659942627,1.4070000648498535
1752154090418023700,9.016023681640625,9.607050895690918,-1.9320000410079956,2.197050094604492
1752154090427877000,9.025877197265626,11.11305046081543,-2.2699501514434814,1.8379501104354858
1752154090437730600,9.03573046875,10.87605094909668,-2.473050117492676,2.2260000705718994
1752154090447584300,9.045584228515626,9.741000175476074,-2.454000234603882,3.1020002365112305
1752154090457437400,9.0554375,9.96405029296875,-2.3749501705169678,2.5879502296447754
1752154090467291100,9.065291015625,8.13705062866211,-1.9650001525878906,3.409050226211548
1752154090477144600,9.07514453125,8.257050514221191,-1.5970500707626343,2.7430500984191895
1752154090486998000,9.084998046875,7.900050163269043,-1.350000023841858,2.7550501823425293
1752154090496851500,9.0948515625,8.185050010681152,-1.1850000619888306,2.4250500202178955
1752154090506705200,9.104705078125,9.195000648498535,-1.0840500593185425,1.7880001068115234
1752154090516558300,9.114558349609375,8.95305061340332,-1.1080501079559326,2.7460501194000244
1752154090526412000,9.124412109375,10.078950881958008,-1.2300000190734863,2.5609500408172607
1752154090536265500,9.134265380859375,10.026000022888184,-1.0699501037597656,2.800950050354004
1752154090546119000,9.144118896484375,9.523050308227539,-0.8550000190734863,3.370950222015381
1752154090555972600,9.15397265625,10.51200008392334,-0.9889500737190247,2.7529501914978027
1752154090565826000,9.163825927734376,9.205050468444824,-1.2619500160217285,3.5650501251220703
1752154090575679200,9.17367919921875,9.40095043182373,-1.434000015258789,2.8630502223968506
1752154090585533000,9.183532958984374,8.767050743103027,-1.738050103187561,2.9880001544952393
1752154090595386400,9.193386474609374,8.874000549316406,-2.052000045776367,2.3460001945495605
1752154090605240000,9.203239990234374,9.553950309753418,-2.1310501098632812,1.5870001316070557
1752154090615093500,9.213093505859375,8.677950859069824,-2.0880000591278076,2.6479501724243164
1752154090624947000,9.222947021484375,10.476000785827637,-2.1739501953125,1.7500500679016113
1752154090634800400,9.23280029296875,10.207950592041016,-1.968000054359436,2.3959500789642334
1752154090644654000,9.242654052734375,9.991950035095215,-1.672950029373169,3.0810000896453857
1752154090654507500,9.252507568359375,10.528950691223145,-1.432050108909607,2.491950035095215
1752154090664361000,9.26236083984375,9.384000778198242,-1.3260000944137573,2.86995005607605
1752154090674214400,9.27221435546875,9.451050758361816,-1.1710500717163086,2.0749499797821045
1752154090684067800,9.28206787109375,9.442049980163574,-1.009950041770935,1.7590501308441162
1752154090693921300,9.29192138671875,8.974950790405273,-1.2060000896453857,1.852950096130371
1752154090703775000,9.30177490234375,9.97605037689209,-1.6330500841140747,1.27305006980896
1752154090713628200,9.311628173828124,9.253050804138184,-1.9939501285552979,2.797950029373169
1752154090723481900,9.32148193359375,10.300950050354004,-2.40405011177063,2.7840001583099365
1752154090733335300,9.331335205078124,10.359000205993652,-2.5500001907348633,2.9730000495910645
1752154090743189000,9.34118896484375,9.403050422668457,-2.559000015258789,3.6480002403259277
1752154090753042400,9.35104248046875,9.957000732421875,-2.4630000591278076,2.6860501766204834
1752154090762896000,9.360895751953125,9.07800006866455,-2.1000001430511475,2.367000102996826
1752154090772749300,9.370749267578125,8.07194995880127,-1.4790000915527344,2.257050037384033
1752154090782602800,9.380602783203125,8.640000343322754,-1.0720500946044922,1.446000099182129
1752154090792456200,9.390456298828125,7.909050464630127,-0.7399500608444214,1.8739501237869263
1752154090802310000,9.400309814453125,8.671050071716309,-0.8689500689506531,1.7760001420974731
1752154090812163300,9.410163330078126,9.40095043182373,-0.8260500431060791,2.0779500007629395
1752154090822016800,9.420016845703126,9.15195083618164,-1.0270500183105469,2.7550501823425293
1752154090831870500,9.429870361328126,10.186050415039062,-1.1509500741958618,2.2290000915527344
1752154090841724000,9.439723876953124,9.475050926208496,-0.9930000305175781,2.8530001640319824
1752154090851577000,9.4495771484375,9.343950271606445,-1.2400500774383545,3.016050100326538
1752154090861430800,9.4594306640625,9.183000564575195,-1.3980001211166382,2.5660500526428223
1752154090871284200,9.4692841796875,7.729950428009033,-1.603950023651123,3.457050085067749
1752154090881138000,9.479137939453125,9.034950256347656,-1.8510000705718994,2.3479502201080322
1752154090890991400,9.488991455078125,9.652050018310547,-2.143050193786621,1.852950096130371
1752154090900844800,9.4988447265625,8.973000526428223,-2.430000066757202,3.046950101852417
1752154090910698200,9.5086982421875,11.170050621032715,-2.8849501609802246,2.038950204849243
1752154090920551700,9.5185517578125,10.608000755310059,-2.760000228881836,2.7120001316070557
1752154090930405000,9.528405029296875,10.677000045776367,-2.5690500736236572,2.596950054168701
1752154090940258800,9.5382587890625,10.720050811767578,-2.2789502143859863,2.3580000400543213
1752154090950112300,9.5481123046875,9.741000175476074,-1.9729501008987427,2.6670000553131104
1752154090959965700,9.557965576171876,8.215950012207031,-1.6110000610351562,2.8750500679016113
1752154090969819400,9.5678193359375,9.022950172424316,-1.4359500408172607,2.092050075531006
1752154090979672800,9.5776728515625,8.070000648498535,-1.4820001125335693,2.205000162124634
1752154090989526300,9.5875263671875,8.92905044555664,-1.8600001335144043,1.2919501066207886
1752154090999379700,9.597379638671875,9.331950187683105,-1.7809500694274902,1.636950135231018
1752154091009233200,9.607233154296875,9.006000518798828,-1.891050100326538,2.4630000591278076
1752154091019086600,9.617086669921875,10.540950775146484,-2.0850000381469727,2.0899500846862793
1752154091028940000,9.62693994140625,10.183950424194336,-1.8889501094818115,2.8150501251220703
1752154091038793700,9.636793701171875,9.169050216674805,-1.699950098991394,3.6510002613067627
1752154091048647000,9.64664697265625,9.523050308227539,-1.3000500202178955,2.269050121307373
1752154091058500600,9.65650048828125,7.500000476837158,-0.7680000066757202,3.3439502716064453
1752154091068354000,9.66635400390625,7.840050220489502,-0.7110000252723694,2.458050012588501
1752154091078207500,9.67620751953125,8.33595085144043,-0.6940500140190125,2.095050096511841
1752154091088061000,9.68606103515625,8.557950019836426,-0.6409500241279602,2.379000186920166
1752154091097914600,9.69591455078125,9.700050354003906,-0.9859500527381897,2.0299501419067383
1752154091107767800,9.705767822265624,10.762950897216797,-1.2499500513076782,1.675950050354004
1752154091117621800,9.715621826171875,10.845000267028809,-1.4530500173568726,2.748000144958496
1752154091127475000,9.725474853515625,12.016050338745117,-1.7400001287460327,2.6359500885009766
1752154091137328400,9.735328369140625,11.98905086517334,-1.9870500564575195,2.9659502506256104
1752154091147182000,9.74518212890625,10.87605094909668,-2.1640501022338867,3.007050037384033
1752154091157035500,9.755035400390625,10.368000030517578,-2.2789502143859863,2.611950159072876
1752154091166889000,9.764888916015625,9.838950157165527,-1.8460501432418823,2.0250000953674316
1752154091176742700,9.77474267578125,7.792050361633301,-1.1970000267028809,2.67900013923645
1752154091186596000,9.78459619140625,7.560000419616699,-0.8110500574111938,2.2210500240325928
1752154091196449300,9.79444921875,7.7470502853393555,-0.5070000290870667,1.852950096130371
1752154091206303000,9.804302978515626,7.549950122833252,-0.6679500341415405,2.3460001945495605
1752154091216156400,9.814156494140626,8.838000297546387,-0.9619500637054443,2.133000135421753
1752154091226009900,9.824009765625,9.010950088500977,-0.6889500617980957,1.9440001249313354
1752154091235863600,9.833863525390624,8.34000015258789,-0.6060000061988831,2.593050241470337
1752154091245717000,9.843717041015625,8.982000350952148,-0.7489500641822815,2.2860000133514404
1752154091255570400,9.8535703125,9.103950500488281,-0.8449500203132629,2.367000102996826
1752154091265424000,9.863423828125,8.09595012664795,-1.3309500217437744,2.959050178527832
1752154091275277300,9.87327734375,9.688050270080566,-1.8480000495910645,1.5010501146316528
1752154091285131000,9.883131103515625,9.564000129699707,-1.9459501504898071,1.2300000190734863
1752154091294984400,9.892984375,8.9170503616333,-1.8859500885009766,2.5060501098632812
1752154091304838000,9.902837890625,10.749000549316406,-1.9030500650405884,1.7880001068115234
1752154091314691300,9.91269140625,10.591050148010254,-1.7479500770568848,2.5420501232147217
1752154091324545000,9.922544921875,10.669950485229492,-1.8840000629425049,3.061950206756592
1752154091334398500,9.9323984375,11.605950355529785,-2.152050018310547,2.7310500144958496
1752154091344252000,9.942251953125,11.227950096130371,-2.1910500526428223,2.8729500770568848
1752154091354105300,9.952105224609374,10.600950241088867,-2.5039501190185547,3.1650002002716064
1752154091363958800,9.961958740234374,10.651050567626953,-3.1579501628875732,2.3770501613616943
1752154091373812500,9.9718125,9.787050247192383,-3.0739500522613525,1.9410001039505005
1752154091383666000,9.981666015625,7.464000225067139,-2.641050100326538,3.01200008392334
1752154091393519600,9.99151953125,7.440000534057617,-2.193000078201294,2.2669501304626465
1752154091403372800,10.001372802734375,7.387050151824951,-1.4910000562667847,2.4079501628875732
1752154091413226500,10.0112265625,6.585000514984131,-1.2229501008987427,3.0930001735687256
1752154091423080000,10.021079833984375,7.146000385284424,-1.3260000944137573,2.6359500885009766
1752154091432933400,10.030933349609375,7.837950229644775,-1.281000018119812,1.7950501441955566
1752154091442786800,10.040786865234375,7.957050323486328,-1.333050012588501,1.3309500217437744
1752154091452640500,10.050640625,9.098999977111816,-1.434000015258789,0.4020000100135803
1752154091462493700,10.06049365234375,11.175000190734863,-1.675950050354004,-0.51705002784729
1752154091472347400,10.070347412109374,11.09595012664795,-2.0710501670837402,0.3160500228404999
1752154091482200800,10.080200927734374,10.291950225830078,-2.332050085067749,1.8600001335144043
1752154091492054300,10.09005419921875,10.243950843811035,-2.1090002059936523,2.578050136566162
1752154091501908000,10.099907958984375,9.471000671386719,-1.5229500532150269,3.6750001907348633
1752154091511761400,10.109761474609375,10.225050926208496,-1.5660001039505005,3.4519500732421875
1752154091521614800,10.11961474609375,11.632950782775879,-2.2669501304626465,1.9390500783920288
1752154091531468500,10.129468505859375,12.00105094909668,-2.574000120162964,1.5649501085281372
1752154091541322000,10.139322021484375,10.158000946044922,-2.4250500202178955,2.623950242996216
1752154091551175400,10.149175537109375,10.704000473022461,-1.6279500722885132,1.675950050354004
1752154091561028900,10.15902880859375,10.543050765991211,-1.2660000324249268,2.451000213623047
1752154091570882300,10.16888232421875,8.209050178527832,-1.2160500288009644,4.363950252532959
1752154091580735700,10.17873583984375,7.498050212860107,-1.3530000448226929,3.427950143814087
1752154091590589400,10.18858935546875,9.861000061035156,-1.6399500370025635,1.467000126838684
1752154091600443000,10.19844287109375,10.564950942993164,-2.061000108718872,1.7760001420974731
1752154091610296600,10.208296630859374,10.624950408935547,-2.748000144958496,2.6329500675201416
1752154091620149800,10.218149658203124,11.893950462341309,-2.2240500450134277,1.1149500608444214
1752154091630003500,10.22800341796875,10.117050170898438,-1.4119501113891602,2.968050241470337
1752154091639857200,10.237857177734375,8.07194995880127,-1.1509500741958618,4.339950084686279
1752154091649710300,10.24771044921875,8.451000213623047,-0.7440000176429749,2.530050039291382
1752154091659563800,10.257563720703125,7.134000301361084,-0.2749500274658203,3.0330002307891846
1752154091669417500,10.26741748046875,6.754950523376465,-0.8280000686645508,2.9350502490997314
1752154091679271000,10.27727099609375,8.58495044708252,-1.9750500917434692,1.1539500951766968
1752154091689124400,10.287124267578125,9.601950645446777,-1.981950044631958,0.2959500253200531
1752154091698977800,10.296977783203126,10.003950119018555,-1.659000039100647,1.374000072479248
1752154091708831500,10.30683154296875,10.990950584411621,-1.6110000610351562,1.828950047492981
1752154091718685000,10.316684814453126,11.515050888061523,-1.111050009727478,2.26200008392334
1752154091728538400,10.326538330078124,10.122000694274902,-0.7900500297546387,3.4039502143859863
1752154091738391800,10.336391845703124,9.292950630187988,-0.4069500267505646,3.2100000381469727
1752154091748245500,10.34624560546875,10.087950706481934,-1.218000054359436,1.765950083732605
1752154091758099000,10.356098876953125,10.348950386047363,-2.382000207901001,0.7800000309944153
1752154091767952400,10.365952392578125,9.69795036315918,-2.92995023727417,0.34905001521110535
1752154091777805800,10.375805908203125,9.720000267028809,-2.3370001316070557,-0.3439500033855438
1752154091787659300,10.3856591796875,9.922950744628906,-1.8460501432418823,0.3829500079154968
1752154091797513000,10.395512939453125,8.131950378417969,-1.6690500974655151,3.5430002212524414
1752154091807366700,10.40536669921875,7.354050159454346,-1.645050048828125,5.065950393676758
1752154091817219800,10.4152197265625,6.9970502853393555,-1.0920000076293945,4.537050247192383
1752154091827073300,10.4250732421875,7.1700005531311035,-1.2330000400543213,3.957000255584717
1752154091836927000,10.434927001953126,7.5169501304626465,-1.4820001125335693,3.0520501136779785
1752154091846780200,10.4447802734375,9.69795036315918,-2.121000051498413,0.1189500093460083
1752154091856633900,10.4546337890625,9.004050254821777,-1.5970500707626343,-0.6580500602722168
1752154091866487300,10.4644873046875,8.166000366210938,-1.519950032234192,0.7060500383377075
1752154091876340700,10.4743408203125,9.754950523376465,-1.5700501203536987,1.350000023841858
1752154091886194200,10.484194091796875,10.309050559997559,-1.7670000791549683,3.0520501136779785
1752154091896047900,10.4940478515625,9.094950675964355,-1.9579501152038574,4.510050296783447
1752154091905901300,10.5039013671875,9.799050331115723,-2.511000156402588,4.063050270080566
1752154091915755000,10.513755126953125,11.719050407409668,-3.1840500831604004,2.0970001220703125
1752154091925608400,10.5236083984375,11.395950317382812,-3.3229501247406006,1.120050072669983
1752154091935461600,10.533461669921875,9.583050727844238,-2.899050235748291,1.807050108909607
1752154091945315300,10.5433154296875,8.14905071258545,-1.6710001230239868,1.8960001468658447
1752154091955168800,10.553168701171876,8.08395004272461,-1.0360500812530518,2.0059502124786377
1752154091965022200,10.563022216796876,6.913050174713135,-0.8830500245094299,3.9400501251220703
1752154091974876000,10.5728759765625,6.624000549316406,-1.1320500373840332,4.240050315856934
1752154091984729300,10.582729248046874,8.439000129699707,-1.5010501146316528,2.050950050354004
1752154091994582800,10.592582763671874,9.109050750732422,-1.5750000476837158,2.053950071334839
1752154092004436200,10.602436279296874,8.623050689697266,-1.4770500659942627,2.628000020980835
1752154092014289700,10.61228955078125,9.267000198364258,-1.5150001049041748,1.7950501441955566
1752154092024143400,10.622143310546875,9.736050605773926,-1.3020000457763672,1.264050006866455
1752154092033996800,10.631996826171875,9.619050025939941,-1.3530000448226929,2.0059502124786377
1752154092043850200,10.641850341796875,9.897000312805176,-1.7880001068115234,2.760000228881836
1752154092053703700,10.65170361328125,10.8589506149292,-2.281949996948242,2.442000150680542
1752154092063557400,10.661557373046875,11.439000129699707,-2.25,2.5950000286102295
1752154092073410600,10.67141064453125,10.819050788879395,-2.041949987411499,3.409050226211548
1752154092083264500,10.681264404296876,10.00200080871582,-1.5540000200271606,3.604950189590454
1752154092093117700,10.69111767578125,10.455000877380371,-0.8500500321388245,1.9339500665664673
1752154092102971400,10.700971435546874,8.734950065612793,-0.2580000162124634,2.947050094604492
1752154092112824800,10.710824951171874,7.327950477600098,-0.33000001311302185,3.8899502754211426
1752154092122678300,10.72067822265625,7.750950336456299,-0.43995001912117004,2.7910501956939697
1752154092132531700,10.73053173828125,8.797950744628906,-0.8689500689506531,2.142000198364258
1752154092142385400,10.740385498046875,8.86500072479248,-1.1830500364303589,2.2759501934051514
1752154092152238800,10.75023876953125,8.800050735473633,-1.6660500764846802,2.848950147628784
1752154092162092300,10.76009228515625,9.40095043182373,-1.6810500621795654,2.3749501705169678
1752154092171945700,10.76994580078125,10.86405086517334,-2.0470499992370605,1.612950086593628
1752154092181799200,10.779799072265625,10.636950492858887,-2.2549500465393066,2.004000186920166
1752154092191652900,10.78965283203125,9.814950942993164,-2.4589500427246094,2.619000196456909
1752154092201506300,10.79950634765625,10.258050918579102,-1.7569501399993896,1.659000039100647
1752154092211359700,10.80935986328125,10.087950706481934,-0.7399500608444214,1.7040001153945923
1752154092221213400,10.81921337890625,8.878950119018555,-0.34200000762939453,3.037950038909912
1752154092231067000,10.82906689453125,9.407999992370605,-0.8830500245094299,2.67900013923645
1752154092240920300,10.83892041015625,9.27405071258545,-1.1970000267028809,2.3940000534057617
1752154092250773800,10.848773681640624,9.942000389099121,-1.64205002784729,2.511000156402588
1752154092260627200,10.858627197265625,9.44895076751709,-2.5230000019073486,3.1909501552581787
1752154092270481000,10.86848095703125,9.64995002746582,-3.0550501346588135,3.01200008392334
1752154092280334300,10.878334228515625,9.70305061340332,-2.8849501609802246,2.212050199508667
1752154092290187800,10.888187744140625,8.302050590515137,-2.152050018310547,2.11395001411438
1752154092300041500,10.89804150390625,6.925050258636475,-1.8600001335144043,3.337050199508667
1752154092309895000,10.90789501953125,7.288950443267822,-2.0400002002716064,2.4750001430511475
1752154092319748600,10.91774853515625,8.733000755310059,-2.053950071334839,1.1490000486373901
1752154092329602000,10.92760205078125,9.44895076751709,-2.1040501594543457,1.3240500688552856
1752154092339455500,10.93745556640625,9.67905044555664,-2.0059502124786377,1.2330000400543213
1752154092349309200,10.94730908203125,10.042950630187988,-1.6849501132965088,0.9550500512123108
1752154092359162400,10.957162353515624,10.183950424194336,-1.489050030708313,1.5870001316070557
1752154092369015800,10.967015869140624,9.256950378417969,-1.1130000352859497,2.4340500831604004
1752154092378869500,10.976869384765624,8.202000617980957,-1.64205002784729,2.86995005607605
1752154092388723000,10.986722900390625,9.097050666809082,-2.599950075149536,1.9890000820159912
1752154092398576400,10.996576416015625,10.114950180053711,-2.920950174331665,0.7870500087738037
1752154092408430000,11.00643017578125,9.921000480651855,-2.868000030517578,0.9280500411987305
1752154092418283500,11.016283447265625,8.92905044555664,-2.281949996948242,2.5759501457214355
1752154092428137000,11.026136962890625,9.169050216674805,-1.3530000448226929,3.0430500507354736
1752154092437990400,11.035990478515625,9.961050033569336,-0.5190000534057617,2.880000114440918
1752154092447843800,11.04584375,9.42300033569336,-0.5290500521659851,3.607950210571289
1752154092457697500,11.055697509765626,8.428950309753418,-0.9979500770568848,3.7270500659942627
1752154092467551200,11.06555126953125,9.981000900268555,-1.8510000705718994,2.095050096511841
1752154092477404400,11.075404296875,10.408950805664062,-1.9200000762939453,1.051050066947937
1752154092487258000,11.085258056640624,10.179000854492188,-1.7569501399993896,1.7590501308441162
1752154092497111600,11.095111572265624,8.922000885009766,-1.4910000562667847,3.049950122833252
1752154092506965000,11.104965087890625,8.271000862121582,-1.0630500316619873,4.005000114440918
1752154092516818400,11.114818359375,9.406050682067871,-1.4170501232147217,3.4450502395629883
1752154092526672000,11.124671875,10.78695011138916,-1.8270001411437988,2.5830001831054688
1752154092536525600,11.134525634765625,10.825950622558594,-2.281949996948242,3.1429500579833984
1752154092546379000,11.14437890625,11.011950492858887,-2.434950113296509,2.5350000858306885
1752154092556232400,11.154232421875,11.632950782775879,-1.8720000982284546,1.9990501403808594
1752154092566086000,11.1640859375,11.497950553894043,-1.3669500350952148,2.1640501022338867
1752154092575939600,11.173939697265626,9.528000831604004,-1.0960500240325928,3.4830002784729004
1752154092585793000,11.18379296875,8.27595043182373,-1.7620500326156616,3.6910502910614014
1752154092595646700,11.193646728515626,8.266050338745117,-2.5980000495910645,2.9160001277923584
1752154092605500000,11.2035,9.109050750732422,-2.6449501514434814,1.8769501447677612
1752154092615353300,11.213353271484374,8.476950645446777,-2.67900013923645,1.9890000820159912
1752154092625207000,11.22320703125,8.155950546264648,-2.389050006866455,2.061000108718872
1752154092635060500,11.233060546875,7.5360002517700195,-1.8169500827789307,2.0629501342773438
1752154092644914200,11.2429140625,7.588950157165527,-1.1749500036239624,1.9270501136779785
1752154092654767600,11.252767578125,7.692000389099121,-0.8620500564575195,2.329050064086914
1752154092664621000,11.26262109375,8.167950630187988,-1.0219500064849854,2.382000207901001
1752154092674474500,11.272474609375,9.304950714111328,-1.1490000486373901,1.8930001258850098
1752154092684328200,11.282328125,10.888050079345703,-1.963050127029419,0.6049500107765198
1752154092694181600,11.292181640625,11.484000205993652,-1.9060500860214233,0.4350000321865082
1752154092704035000,11.30203515625,10.81095027923584,-1.7449500560760498,1.798050045967102
1752154092713888800,11.311888671875,9.384000778198242,-1.2690000534057617,3.121950149536133
1752154092723742000,11.321741943359376,10.23705005645752,-1.1869500875473022,3.838050127029419
1752154092733595600,11.331595703125,11.062950134277344,-1.6639500856399536,3.555000066757202
1752154092743449000,11.341448974609374,11.1510009765625,-2.3610000610351562,3.616950273513794
1752154092753302500,11.351302490234374,10.96500015258789,-3.430950164794922,3.778050184249878
1752154092763156200,11.36115625,10.050000190734863,-3.430950164794922,3.555000066757202
1752154092773009700,11.371009765625,10.84695053100586,-3.3420002460479736,3.7849502563476562
1752154092782863000,11.380863037109375,10.222050666809082,-3.20805025100708,3.9379501342773438
1752154092792716800,11.390716796875,8.452950477600098,-3.2340002059936523,4.801950454711914
1752154092802570200,11.4005703125,8.87700080871582,-3.6919500827789307,4.4670000076293945
1752154092812423700,11.410423583984375,9.343950271606445,-3.756000280380249,3.186000108718872
1752154092822277000,11.420277099609375,9.72195053100586,-3.6409502029418945,2.26200008392334
1752154092832130600,11.430130615234376,9.415050506591797,-3.3160500526428223,1.3429501056671143
1752154092841984300,11.439984375,9.087000846862793,-2.7769501209259033,0.6480000019073486
1752154092851837700,11.449837646484376,9.5110502243042,-1.9560000896453857,-0.4350000321865082
1752154092861691100,11.459691162109374,8.773950576782227,-0.6490500569343567,-0.4740000367164612
1752154092871544800,11.469544921875,7.593000411987305,0.4300500154495239,0.3730500042438507
1752154092881398300,11.479398193359375,8.35004997253418,0.45705002546310425,0.3160500228404999
1752154092891252000,11.489251953125,8.995950698852539,-0.16695000231266022,-0.22200001776218414
1752154092901105200,11.499105224609375,8.659049987792969,-0.5460000038146973,-0.1860000044107437
1752154092910958800,11.508958740234375,7.1700005531311035,-0.7110000252723694,0.742050051689148
1752154092920812300,11.518812255859375,6.528000354766846,-0.8830500245094299,0.5500500202178955
1752154092930665700,11.528665771484375,6.468000411987305,-0.6319500207901001,0.7750500440597534
1752154092940519400,11.53851953125,5.995950222015381,-0.4330500066280365,1.8139500617980957
1752154092950372900,11.548372802734375,5.230050086975098,-0.9070500135421753,2.095050096511841
1752154092960226300,11.558226318359376,6.454050540924072,-1.3069500923156738,0.24105000495910645
1752154092970079700,11.568079833984376,6.841950416564941,-1.048050045967102,-0.8809500336647034
1752154092979933400,11.577933349609374,5.002950191497803,-0.4519500136375427,0.10200000554323196
1752154092989787000,11.587786865234374,5.881050109863281,0,-1.0309500694274902
1752154092999640600,11.597640625,6.268950462341309,0.40905001759529114,-0.5719500184059143
1752154093009493800,11.60749365234375,6.22605037689209,0.2989500164985657,0.6960000395774841
1752154093019347500,11.617347412109375,7.761000156402588,-0.44505003094673157,0.7870500087738037
1752154093029201000,11.627200927734375,9.637950897216797,-1.683000087738037,1.1770501136779785
1752154093039054300,11.637054443359375,9.447000503540039,-4.551000118255615,3.0709500312805176
1752154093048907800,11.64690771484375,9.520950317382812,-5.701050281524658,3.325050115585327
1752154093058761500,11.656761474609375,10.456950187683105,-5.2099504470825195,3.0640501976013184
1752154093068615000,11.666614990234375,8.665950775146484,-5.164050102233887,4.338000297546387
1752154093078468400,11.67646826171875,10.438050270080566,-4.980000019073486,3.945000171661377
1752154093088321800,11.68632177734375,14.556000709533691,-5.322000026702881,3.121950149536133
1752154093098175200,11.69617529296875,15.286050796508789,-8.545050621032715,4.939050197601318
1752154093108029000,11.70602880859375,15.928050994873047,-9.745050430297852,3.7710001468658447
1752154093117882400,11.71588232421875,15.985051155090332,-9.52695083618164,2.25
1752154093127735800,11.72573583984375,15.037050247192383,-8.835000038146973,3.2250001430511475
1752154093137589500,11.735589599609375,13.681950569152832,-7.513050556182861,2.8320000171661377
1752154093147443000,11.74544287109375,12.580950736999512,-5.7270002365112305,3.0400500297546387
1752154093157296400,11.75529638671875,11.70405101776123,-4.60605001449585,3.4450502395629883
1752154093167149800,11.76514990234375,11.668050765991211,-3.850050210952759,2.6020500659942627
1752154093177003300,11.775003173828125,9.631050109863281,-3.2059502601623535,3.0019500255584717
1752154093186857000,11.78485693359375,7.974000453948975,-2.1349501609802246,1.672950029373169
1752154093196710400,11.79471044921875,7.105050563812256,-1.1370000839233398,1.1509500741958618
1752154093206563800,11.804563720703126,6.094950199127197,-0.6289500594139099,1.5919500589370728
1752154093216417300,11.814417236328126,6.810000419616699,-0.1960500031709671,0.004050000105053186
1752154093226271000,11.82427099609375,6.829950332641602,0.4159500300884247,-0.6910500526428223
1752154093236124400,11.83412451171875,5.677950382232666,1.596000075340271,-0.4210500121116638
1752154093245978000,11.84397802734375,6.652050495147705,2.4340500831604004,-1.0909500122070312
1752154093255831300,11.853831298828124,6.38700008392334,2.1880500316619873,0.31995001435279846
1752154093265684700,11.863684814453125,6.090000152587891,1.2300000190734863,0.49800002574920654
1752154093275538400,11.873538330078125,5.977050304412842,0.40605002641677856,0.7270500063896179
1752154093285392000,11.883391845703125,5.247000217437744,-0.3829500079154968,0.984000027179718
1752154093295245300,11.893245361328125,6.655050277709961,-1.1869500875473022,-0.11400000751018524
1752154093305099000,11.90309912109375,7.05495023727417,-1.6489500999450684,-0.43800002336502075
1752154093314952400,11.912952392578125,7.890000343322754,-1.7260501384735107,-0.4210500121116638
1752154093324806000,11.922805908203125,10.083000183105469,-1.5559500455856323,-0.3750000298023224
1752154093334659600,11.93265966796875,11.577000617980957,-1.5180001258850098,0.559950053691864
1752154093344513000,11.942512939453126,13.632000923156738,-2.454000234603882,0.9240000247955322
1752154093354366500,11.952366455078124,14.395950317382812,-3.0210001468658447,1.5100500583648682
1752154093364220000,11.962219970703124,13.432950973510742,-2.8939502239227295,2.3580000400543213
1752154093374073600,11.972073486328124,12.12600040435791,-2.6170501708984375,2.608950138092041
1752154093383927000,11.981927001953125,9.789000511169434,-2.8150501251220703,4.052999973297119
1752154093393780500,11.991780517578125,9.528000831604004,-3.3610501289367676,3.985950231552124
1752154093403634000,12.001634033203125,8.407050132751465,-3.517050266265869,4.9170002937316895
1752154093413487600,12.011487548828125,8.632950782775879,-3.415950059890747,4.840950012207031
1752154093423341000,12.021341064453125,8.781000137329102,-3.019050121307373,5.16195011138916
1752154093433194500,12.031194580078125,8.616000175476074,-2.0659501552581787,4.696950435638428
1752154093443048200,12.041048095703125,8.271000862121582,-0.9259500503540039,4.422000408172607
1752154093452901600,12.050901611328126,8.155950546264648,0.10695000737905502,3.8520002365112305
1752154093462755300,12.06075537109375,8.314050674438477,0.6600000262260437,2.880000114440918
1752154093472608800,12.07060888671875,8.625,1.4329500198364258,1.6870501041412354
1752154093482462000,12.0804619140625,8.197050094604492,2.0820000171661377,1.294950008392334
1752154093492315600,12.090315673828124,9.013050079345703,1.8790501356124878,1.0600500106811523
1752154093502169000,12.100169189453124,9.291000366210938,0.7770000100135803,1.2130500078201294
1752154093512022500,12.1100224609375,9.235950469970703,-0.6010500192642212,1.7310000658035278
1752154093521876200,12.119876220703125,8.836050033569336,-1.446000099182129,2.1090002059936523
1752154093531729700,12.129729736328125,7.660050392150879,-1.977000117301941,3.061950206756592
1752154093541583000,12.1395830078125,7.777950286865234,-2.710050106048584,2.937000036239624
1752154093551436800,12.149436767578125,7.821000576019287,-3.2749502658843994,2.932950258255005
1752154093561290200,12.159290283203125,8.818950653076172,-3.2059502601623535,2.5540502071380615
1752154093571143700,12.169143798828125,8.700000762939453,-2.6929500102996826,2.788950204849243
1752154093580997000,12.1789970703125,8.973000526428223,-1.8859500885009766,2.5279500484466553
1752154093590850600,12.1888505859375,9.757950782775879,-1.3999500274658203,2.7910501956939697
1752154093600704300,12.198704345703124,10.801950454711914,-1.432050108909607,2.473050117492676
1752154093610557700,12.2085576171875,11.074950218200684,-1.7119500637054443,2.389050006866455
1752154093620411100,12.2184111328125,11.33595085144043,-2.2069501876831055,1.9339500665664673
1752154093630264600,12.2282646484375,11.062950134277344,-2.5860002040863037,1.4029500484466553
1752154093640118300,12.2381181640625,10.32300090789795,-3.019050121307373,1.8480000495910645
1752154093649971700,12.2479716796875,9.745950698852539,-3.01200008392334,2.013000011444092
1752154093659825400,12.257825439453125,8.688000679016113,-2.830050230026245,2.6260502338409424
1752154093669678800,12.267678955078125,8.986950874328613,-2.7799501419067383,2.152050018310547
1752154093679532300,12.2775322265625,9.367950439453125,-2.8320000171661377,2.2290000915527344
1752154093689385700,12.2873857421875,10.102950096130371,-2.6359500885009766,1.8889501094818115
1752154093699239200,12.2972392578125,10.999950408935547,-2.5189502239227295,1.8139500617980957
1752154093709092600,12.307092529296876,11.913000106811523,-2.3749501705169678,1.165950059890747
1752154093718946300,12.3169462890625,11.06505012512207,-2.1760501861572266,2.1739501953125
1752154093728799700,12.3267998046875,10.009050369262695,-2.1000001430511475,2.703000068664551
1752154093738653400,12.3366533203125,9.019950866699219,-2.0299501419067383,2.419950008392334
1752154093748506600,12.346506591796874,9.267000198364258,-2.389050006866455,1.9200000762939453
1752154093758360300,12.3563603515625,9.4350004196167,-2.9569501876831055,2.0179500579833984
1752154093768213800,12.3662138671875,9.6739501953125,-3.189000129699707,1.7190001010894775
1752154093778067200,12.376067138671875,9.708000183105469,-2.890050172805786,2.1469500064849854
1752154093787921000,12.3859208984375,9.637950897216797,-2.641050100326538,3.136050224304199
1752154093797774300,12.3957744140625,9.801000595092773,-2.2069501876831055,3.106950044631958
1752154093807627800,12.405627685546875,9.442049980163574,-1.636950135231018,3.049950122833252
1752154093817481500,12.4154814453125,9.298050880432129,-1.5420000553131104,1.4599500894546509
1752154093827335000,12.4253349609375,8.497950553894043,-1.3620001077651978,1.221000075340271
1752154093837188400,12.435188232421876,8.533950805664062,-1.276050090789795,0.7180500626564026
1752154093847041800,12.445041748046876,8.994000434875488,-1.3669500350952148,1.264050006866455
1752154093856895200,12.454895263671874,9.757950782775879,-1.4119501113891602,1.5319501161575317
1752154093866749000,12.4647490234375,9.769950866699219,-1.4220000505447388,3.126000165939331
1752154093876602400,12.474602294921874,10.294050216674805,-1.7640000581741333,3.7800002098083496
1752154093886456000,12.4844560546875,10.426050186157227,-2.155050039291382,3.280050039291382
1752154093896309500,12.4943095703125,10.435050964355469,-2.0659501552581787,2.659950017929077
1752154093906163000,12.504162841796875,10.147950172424316,-2.076000213623047,2.152050018310547
1752154093916016400,12.514016357421875,9.475050926208496,-1.5250500440597534,2.1450002193450928
1752154093925870000,12.5238701171875,9.17400074005127,-1.0030500888824463,1.8340500593185425
1752154093935723500,12.5337236328125,7.870950222015381,-1.0290000438690186,3.5410501956939697
1752154093945577000,12.543576904296875,8.056050300598145,-1.38795006275177,3.7800002098083496
1752154093955430400,12.553430419921876,7.804050445556641,-1.759950041770935,3.865950107574463
1752154093965283800,12.563283935546876,8.451000213623047,-2.158950090408325,3.427950143814087
1752154093975137500,12.573137451171876,8.695050239562988,-2.751000165939331,2.5159502029418945
1752154093984991000,12.582990966796874,8.428950309753418,-2.9160001277923584,1.4050500392913818
1752154093994844400,12.592844482421874,7.609950542449951,-2.419950008392334,0.9910500645637512
1752154094004698000,12.602697998046875,7.222050189971924,-2.0179500579833984,0.7680000066757202
1752154094014551600,12.612551513671875,7.299000263214111,-2.053950071334839,1.5289500951766968
1752154094024405000,12.622405029296875,9.013050079345703,-2.332050085067749,1.4580000638961792
1752154094034258700,12.6322587890625,9.70995044708252,-1.8270001411437988,1.3069500923156738
1752154094044112000,12.64211181640625,10.378050804138184,-1.204050064086914,1.467000126838684
1752154094053965300,12.65196533203125,10.80405044555664,-0.8860500454902649,1.6519501209259033
1752154094063819000,12.661819091796875,10.230000495910645,-1.0459500551223755,2.509050130844116
1752154094073672400,12.67167236328125,10.207950592041016,-1.7839500904083252,1.867050051689148
1752154094083526000,12.68152587890625,9.222000122070312,-2.3080501556396484,2.050950050354004
1752154094093379600,12.691379638671876,9.205050468444824,-2.899050235748291,1.4839500188827515
1752154094103233000,12.70123291015625,8.758950233459473,-3.4740002155303955,1.8889501094818115
1752154094113086500,12.71108642578125,8.79104995727539,-3.7639501094818115,2.2789502143859863
1752154094122940200,12.720940185546874,8.485950469970703,-3.438000202178955,3.1339502334594727
1752154094132793300,12.73079345703125,9.166050910949707,-2.9230501651763916,2.6260502338409424
1752154094142647000,12.74064697265625,9.44895076751709,-2.1160500049591064,2.419950008392334
1752154094152500500,12.75050048828125,10.054950714111328,-1.6210501194000244,2.530050039291382
1752154094162354200,12.760354248046875,10.629000663757324,-1.1680500507354736,1.6489500999450684
1752154094172207600,12.77020751953125,10.54800033569336,-0.9979500770568848,1.221000075340271
1752154094182061000,12.78006103515625,10.15095043182373,-1.432050108909607,1.2679500579833984
1752154094191914500,12.78991455078125,9.529950141906738,-1.8979500532150269,2.4630000591278076
1752154094201768000,12.799767822265625,9.352950096130371,-2.2170000076293945,2.4679501056671143
1752154094211621600,12.80962158203125,9.022950172424316,-2.611950159072876,3.058950185775757
1752154094221475000,12.81947509765625,9.41100025177002,-3.120000123977661,3.1309502124786377
1752154094231328500,12.82932861328125,9.753000259399414,-3.3010501861572266,2.7910501956939697
1752154094241182000,12.839181884765624,9.99000072479248,-2.410950183868408,2.3149502277374268
1752154094251035600,12.84903564453125,10.32300090789795,-1.7400001287460327,2.1280500888824463
1752154094260889000,12.85888916015625,9.787050247192383,-1.0600500106811523,3.2029502391815186
1752154094270742500,12.868742431640625,10.111950874328613,-0.26295000314712524,2.6569502353668213
1752154094280596200,12.87859619140625,9.838950157165527,0.08295000344514847,2.5350000858306885
1752154094290449400,12.888449462890625,11.30505084991455,-0.8089500665664673,1.596000075340271
1752154094300302800,12.898302734375,10.837950706481934,-1.7740501165390015,2.2450501918792725
1752154094310156500,12.908156494140625,10.230000495910645,-1.8859500885009766,2.371950149536133
1752154094320010000,12.918010009765625,9.159000396728516,-1.675950050354004,2.8560001850128174
1752154094329863700,12.92786376953125,8.239950180053711,-1.9180500507354736,3.495000123977661
1752154094339717000,12.937717041015626,8.290050506591797,-2.073000192642212,3.3730502128601074
1752154094349570600,12.947570556640626,8.155950546264648,-1.7880001068115234,2.77905011177063
